gyro_x,gyro_y,gyro_z
0.00579070253297687,-0.0186068024486303,-0.0101072788238525
0.0111170243471861,0.0112205976620317,0.00161062914412469
-0.0112535273656249,0.00163321837317199,-0.0037156930193305
-0.00805773492902517,0.0197427123785019,-0.0186293944716454
-0.0165798515081406,-0.00156257464550436,0.0165243316441774
0.00259490916505456,-0.00688889669254422,-0.0101072788238525
0.00259490916505456,0.0112205976620317,-0.0143683375790715
-0.00166614807676524,-0.00156257464550436,0.00267589301802218
-0.00273141241632402,-0.00582363223657012,-0.0047809574753046
-0.00805773492902517,0.00269848271273077,-0.0133030731230974
0.00685596698895097,0.0112205976620317,-0.0037156930193305
-0.00912299938499928,-0.000497310247737914,0.00374115747399628
-0.00273141241632402,-0.00369310332462192,0.00374115747399628
0.000464380573248491,0.00802480429410934,-0.00797675084322691
-0.00166614807676524,-0.00369310332462192,0.01332853641361
0.00472543807700276,0.005894276779145,-0.0111725432798266
0.0132475523278117,0.0112205976620317,0.0346338264644146
-0.00379667733795941,0.0048290123231709,-0.0314125642180443
0.00685596698895097,-0.00156257464550436,0.0101327430456877
0.00472543807700276,-0.00262783886864781,-0.0133030731230974
0.00472543807700276,-0.000497310247737914,0.0101327430456877
0.00259490916505456,0.00802480429410934,0.0175895970314741
-0.00273141241632402,0.00376374716870487,-0.000519900000654161
-0.00166614807676524,-0.00369310332462192,0.0143938018009067
-0.00273141241632402,0.000567954499274492,-0.0164988655596972
-0.012318791821599,0.0133511275053024,0.0346338264644146
0.00259490916505456,0.0048290123231709,-0.0026504285633564
-0.00166614807676524,-0.00475836778059602,-0.0101072788238525
0.00259490916505456,0.00376374716870487,-0.0101072788238525
0.010051759891212,-0.00262783886864781,-0.00158516434021294
-0.00699247000738978,0.00802480429410934,0.00693695107474923
0.0143128167837858,-0.00901942513883114,-0.00584622146561742
0.00579070253297687,-0.0111499540507793,0.0122632719576359
-0.00379667733795941,0.00802480429410934,-0.000519900000654161
-0.00699247000738978,0.000567954499274492,0.00800221413373947
0.00472543807700276,0.00269848271273077,0.00374115747399628
0.00259490916505456,-0.000497310247737914,-0.0133030731230974
0.00472543807700276,-0.000497310247737914,-0.0026504285633564
-0.0240366999059916,-0.00475836778059602,0.00054536439711228
0.00792123097926378,0.00269848271273077,0.00906747858971357
0.00366017362102866,0.000567954499274492,-0.0143683375790715
0.0015296449419111,-0.0100846895948052,0.00587168661877513
-0.0133840562775731,0.0144163919612765,0.0165243316441774
0.0121822888031602,-0.0122152185067534,-0.0218251869082451
-0.0187103785574436,-0.000497310247737914,0.00480642216280103
-0.00273141241632402,0.00802480429410934,-0.02502098120749
0.00579070253297687,0.00909006875008345,0.00480642216280103
0.00259490916505456,-0.00688889669254422,0.0282422378659248
-0.00273141241632402,0.000567954499274492,-0.0037156930193305
-0.00060088379541412,-0.0175415389239788,-0.0164988655596972
0.00366017362102866,0.00163321837317199,0.00800221413373947
-0.00379667733795941,0.00269848271273077,-0.0154336011037231
-0.012318791821599,0.000567954499274492,0.01332853641361
0.0153780812397599,-0.00475836778059602,-0.0186293944716454
-0.00273141241632402,0.00376374716870487,0.00587168661877513
0.00472543807700276,-0.00582363223657012,-0.0037156930193305
-0.00166614807676524,0.00163321837317199,0.00906747858971357
0.00366017362102866,-0.000497310247737914,-0.00797675084322691
0.00579070253297687,-0.00475836778059602,-0.0111725432798266
0.00685596698895097,0.00269848271273077,-0.0026504285633564
0.000464380573248491,0.0101553332060575,-0.0037156930193305
-0.0101882629096508,0.0101553332060575,0.00267589301802218
0.00366017362102866,-0.0175415389239788,0.0186548586934805
-0.00166614807676524,0.00695953983813524,-0.00904201529920101
0.00259490916505456,-0.00156257464550436,-0.0154336011037231
0.0143128167837858,-0.0111499540507793,0.0143938018009067
-0.00166614807676524,-0.00475836778059602,0.00587168661877513
0.00259490916505456,-0.00688889669254422,-0.00158516434021294
-0.00592720555141568,-0.0100846895948052,0.0111980075016618
-0.00273141241632402,0.00376374716870487,0.00161062914412469
0.0015296449419111,-0.00688889669254422,0.0111980075016618
0.00685596698895097,0.0144163919612765,0.01332853641361
-0.00166614807676524,0.00269848271273077,0.00693695107474923
0.00579070253297687,-0.00475836778059602,0.00054536439711228
-0.00699247000738978,-0.00475836778059602,0.00693695107474923
0.0111170243471861,-0.00901942513883114,-0.0111725432798266
-0.00805773492902517,-0.00688889669254422,0.00374115747399628
-0.00166614807676524,-0.00582363223657012,-0.0122378077358007
-0.0165798515081406,0.000567954499274492,0.00800221413373947
0.000464380573248491,0.0048290123231709,0.00374115747399628
0.00259490916505456,-0.0132804829627275,-0.000519900000654161
-0.0112535273656249,0.0176121834665537,0.0122632719576359
-0.0144493207335472,0.0133511275053024,0.00054536439711228
0.00792123097926378,-0.0164762753993273,-0.0026504285633564
-0.00273141241632402,0.005894276779145,-0.0026504285633564
-0.00166614807676524,-0.00369310332462192,0.0143938018009067
0.0121822888031602,-0.00156257464550436,-0.0314125642180443
0.00579070253297687,0.00802480429410934,0.0165243316441774
0.0015296449419111,0.0048290123231709,-0.000519900000654161
0.00366017362102866,0.00163321837317199,0.00054536439711228
0.00792123097926378,-0.00475836778059602,-0.0260862428694963
-0.0144493207335472,0.0122858621180058,0.0239811800420284
0.00685596698895097,-0.00901942513883114,0.00693695107474923
0.000464380573248491,-0.00795416068285704,0.00054536439711228
0.00579070253297687,0.005894276779145,-0.0037156930193305
0.000464380573248491,-0.0111499540507793,-0.000519900000654161
-0.00379667733795941,0.0048290123231709,0.00054536439711228
0.0015296449419111,-0.00795416068285704,-0.0026504285633564
-0.00379667733795941,0.00163321837317199,-0.000519900000654161
-0.00805773492902517,-0.00475836778059602,0.00161062914412469
0.00259490916505456,-0.00262783886864781,0.0218506529927254
-0.00273141241632402,-0.00795416068285704,-0.0207599233835936
0.0196391399949789,-0.00475836778059602,0.0218506529927254
-0.00060088379541412,-0.00369310332462192,-0.00904201529920101
-0.00592720555141568,-0.0122152185067534,-0.0228904522955418
0.0121822888031602,-0.00582363223657012,-0.0026504285633564
-0.00912299938499928,0.0101553332060575,-0.0037156930193305
0.00366017362102866,0.00163321837317199,-0.0164988655596972
0.000464380573248491,0.00695953983813524,0.0207853876054287
-0.00273141241632402,0.0048290123231709,-0.00691148592159152
-0.00273141241632402,-0.00582363223657012,0.00693695107474923
-0.00273141241632402,0.0154816564172506,-0.0026504285633564
0.00898649543523788,0.00163321837317199,-0.00904201529920101
0.00579070253297687,-0.0111499540507793,0.0154590662568808
-0.0101882629096508,0.00909006875008345,-0.0111725432798266
0.0111170243471861,0.0101553332060575,0.00906747858971357
-0.00912299938499928,-0.0260636564344168,-0.0037156930193305
0.0121822888031602,-0.00369310332462192,-0.0037156930193305
-0.0112535273656249,0.0144163919612765,0.0261117089539766
-0.00379667733795941,-0.00156257464550436,-0.00158516434021294
0.00259490916505456,0.000567954499274492,-0.0239557158201933
-0.0165798515081406,-0.0122152185067534,0.01332853641361
0.00366017362102866,0.00269848271273077,0.0101327430456877
0.00366017362102866,0.00802480429410934,0.00374115747399628
0.00685596698895097,-0.0132804829627275,-0.0037156930193305
-0.00166614807676524,0.0048290123231709,-0.0122378077358007
-0.00273141241632402,0.005894276779145,-0.00584622146561742
0.00579070253297687,0.0176121834665537,0.0122632719576359
-0.00379667733795941,-0.0207373313605785,0.0207853876054287
-0.0133840562775731,0.0133511275053024,-0.00691148592159152
0.00898649543523788,-0.00688889669254422,0.0197201240807772
-0.0101882629096508,0.0208079759031534,-0.0037156930193305
0.00366017362102866,-0.0239331275224686,0.00587168661877513
-0.00486194109544158,-0.00475836778059602,0.00587168661877513
-0.00912299938499928,0.0122858621180058,0.0165243316441774
0.000464380573248491,-0.00369310332462192,-0.00584622146561742
0.0143128167837858,0.00376374716870487,0.0165243316441774
-0.00379667733795941,0.00695953983813524,-0.00904201529920101
0.00792123097926378,-0.00582363223657012,-0.0143683375790715
0.00685596698895097,-0.00156257464550436,0.0197201240807772
-0.00273141241632402,0.005894276779145,0.00374115747399628
0.00259490916505456,0.0122858621180058,0.0154590662568808
0.00685596698895097,-0.0186068024486303,-0.0186293944716454
-0.00379667733795941,-0.00156257464550436,0.0261117089539766
-0.00060088379541412,-0.0164762753993273,-0.00904201529920101
-0.00486194109544158,0.00802480429410934,0.0143938018009067
-0.00379667733795941,0.00909006875008345,-0.0196946579962969
0.00685596698895097,0.0048290123231709,0.0122632719576359
-0.00166614807676524,-0.0100846895948052,0.0143938018009067
-0.00699247000738978,0.0048290123231709,-0.0133030731230974
0.010051759891212,-0.00795416068285704,0.0143938018009067
-0.00592720555141568,0.0144163919612765,-0.000519900000654161
-0.00166614807676524,-0.0164762753993273,0.00161062914412469
0.00579070253297687,0.00269848271273077,0.0165243316441774
-0.00486194109544158,0.0048290123231709,0.00267589301802218
-0.00379667733795941,-0.0143457474187017,0.00267589301802218
0.00685596698895097,-0.00369310332462192,0.00267589301802218
-0.00805773492902517,0.0144163919612765,0.0154590662568808
0.010051759891212,0.000567954499274492,-0.0047809574753046
0.0015296449419111,0.0048290123231709,0.0207853876054287
-0.0133840562775731,-0.0207373313605785,-0.02502098120749
0.00366017362102866,0.00909006875008345,0.00054536439711228
0.0217696689069271,-0.0100846895948052,0.0111980075016618
-0.0155145851895213,-0.000497310247737914,-0.0026504285633564
-0.00486194109544158,0.0101553332060575,0.00800221413373947
0.0185738764703274,-0.00688889669254422,-0.000519900000654161
-0.00379667733795941,0.0101553332060575,0.01332853641361
-0.00060088379541412,0.00269848271273077,0.00161062914412469
0.0196391399949789,-0.00901942513883114,0.01332853641361
0.00685596698895097,0.0176121834665537,0.00587168661877513
0.0111170243471861,-0.0143457474187017,-0.0207599233835936
-0.00166614807676524,-0.00795416068285704,0.0111980075016618
-0.00805773492902517,0.0229385048151016,-0.00584622146561742
0.00898649543523788,-0.0122152185067534,-0.0111725432798266
-0.00379667733795941,-0.00262783886864781,0.0111980075016618
0.0217696689069271,-0.00582363223657012,0.00054536439711228
-0.0155145851895213,-0.000497310247737914,0.0175895970314741
-0.00060088379541412,-0.0111499540507793,-0.00797675084322691
-0.00166614807676524,0.0112205976620317,-0.00904201529920101
-0.0251019634306431,-0.00901942513883114,0.00161062914412469
0.0111170243471861,-0.00262783886864781,0.0175895970314741
0.000464380573248491,-0.00369310332462192,0.00161062914412469
0.00898649543523788,0.0144163919612765,0.00374115747399628
0.0111170243471861,-0.00688889669254422,-0.0101072788238525
-0.0112535273656249,0.00802480429410934,-0.000519900000654161
0.00472543807700276,0.00695953983813524,0.00374115747399628
-0.0112535273656249,-0.00262783886864781,-0.00158516434021294
-0.00486194109544158,0.0165469218045473,-0.00691148592159152
-0.00166614807676524,-0.00901942513883114,0.00587168661877513
0.0207044053822756,0.0133511275053024,-0.0101072788238525
-0.00699247000738978,-0.0143457474187017,-0.00904201529920101
0.00685596698895097,0.0186774469912052,-0.00904201529920101
0.00898649543523788,-0.00795416068285704,-0.0292820371687412
-0.012318791821599,0.0112205976620317,0.0282422378659248
-0.00166614807676524,-0.00475836778059602,-0.0186293944716454
0.00366017362102866,0.0048290123231709,0.0122632719576359
0.00366017362102866,0.00163321837317199,-0.0026504285633564
0.00259490916505456,-0.0260636564344168,0.00587168661877513
-0.0187103785574436,0.00163321837317199,-0.00158516434021294
0.0015296449419111,0.0208079759031534,-0.0111725432798266
0.0121822888031602,-0.0111499540507793,-0.00158516434021294
-0.0176451150327921,-0.0122152185067534,-0.0047809574753046
-0.00486194109544158,-0.000497310247737914,0.0111980075016618
0.010051759891212,0.00695953983813524,0.00161062914412469
-0.0176451150327921,0.0133511275053024,0.0186548586934805
0.00259490916505456,-0.000497310247737914,-0.0111725432798266
-0.00166614807676524,-0.000497310247737914,0.00906747858971357
-0.00486194109544158,-0.00369310332462192,-0.0101072788238525
0.000464380573248491,0.005894276779145,0.0325032994151115
-0.0176451150327921,0.0144163919612765,0.00267589301802218
0.0121822888031602,-0.00795416068285704,0.00267589301802218
-0.0112535273656249,0.0133511275053024,0.00480642216280103
-0.00166614807676524,-0.0143457474187017,-0.0143683375790715
0.00792123097926378,0.0122858621180058,0.00693695107474923
0.010051759891212,0.0122858621180058,0.0101327430456877
-0.0133840562775731,-0.000497310247737914,0.0101327430456877
-0.00060088379541412,-0.000497310247737914,0.0101327430456877
-0.00805773492902517,0.0250690337270498,0.0186548586934805
0.000464380573248491,-0.0100846895948052,-0.0111725432798266
-0.00699247000738978,0.005894276779145,-0.0026504285633564
-0.00486194109544158,-0.00901942513883114,-0.0047809574753046
0.000464380573248491,0.0133511275053024,-0.00584622146561742
0.0132475523278117,-0.0281941834837198,0.00800221413373947
0.0143128167837858,0.00695953983813524,-0.0047809574753046
-0.00486194109544158,-0.0100846895948052,-0.0292820371687412
0.0143128167837858,0.00802480429410934,0.0122632719576359
0.000464380573248491,-0.000497310247737914,-0.00584622146561742
0.00579070253297687,0.0122858621180058,-0.00691148592159152
0.000464380573248491,0.005894276779145,-0.000519900000654161
-0.00592720555141568,-0.00369310332462192,-0.02502098120749
-0.00166614807676524,0.0048290123231709,0.0239811800420284
0.0111170243471861,0.0144163919612765,0.00374115747399628
-0.00699247000738978,-0.0175415389239788,0.00267589301802218
0.00472543807700276,0.0122858621180058,-0.0101072788238525
0.00259490916505456,-0.022867863997817,0.00267589301802218
-0.00486194109544158,0.0144163919612765,-0.00691148592159152
-0.0197756439447403,-0.00795416068285704,0.00267589301802218
0.00685596698895097,0.00802480429410934,-0.0122378077358007
0.00472543807700276,-0.00156257464550436,0.00374115747399628
-0.00805773492902517,0.00163321837317199,-0.00904201529920101
-0.00379667733795941,0.00269848271273077,0.00161062914412469
0.0121822888031602,0.0144163919612765,-0.0026504285633564
-0.00805773492902517,-0.0154110118746758,-0.0196946579962969
0.0143128167837858,0.00909006875008345,-0.000519900000654161
0.00259490916505456,-0.00262783886864781,0.00693695107474923
0.00259490916505456,-0.00475836778059602,0.0197201240807772
-0.00166614807676524,-0.00475836778059602,-0.0239557158201933
-0.00166614807676524,0.0133511275053024,0.00693695107474923
0.00366017362102866,-0.0111499540507793,0.00267589301802218
0.00259490916505456,0.0112205976620317,0.0207853876054287
0.00259490916505456,-0.000497310247737914,-0.00904201529920101
0.00259490916505456,-0.0122152185067534,-0.0101072788238525
-0.00060088379541412,0.00269848271273077,-0.00691148592159152
-0.00060088379541412,-0.00475836778059602,0.00693695107474923
-0.00273141241632402,-0.00369310332462192,-0.0239557158201933
-0.00912299938499928,0.0101553332060575,0.0111980075016618
0.0143128167837858,-0.00369310332462192,-0.00584622146561742
-0.00486194109544158,-0.00582363223657012,-0.00904201529920101
0.000464380573248491,-0.00795416068285704,-0.00158516434021294
-0.00486194109544158,-0.00262783886864781,-0.0111725432798266
0.00259490916505456,-0.00582363223657012,-0.0047809574753046
0.000464380573248491,-0.00901942513883114,-0.0047809574753046
-0.0112535273656249,-0.00475836778059602,0.0143938018009067
0.00366017362102866,-0.0154110118746758,-0.0196946579962969
0.0111170243471861,0.0165469218045473,0.00800221413373947
0.0015296449419111,-0.00262783886864781,-0.0037156930193305
-0.00486194109544158,-0.0100846895948052,-0.00904201529920101
0.000464380573248491,-0.00475836778059602,0.00480642216280103
-0.00060088379541412,0.0101553332060575,-0.0037156930193305
-0.00486194109544158,-0.00795416068285704,0.0165243316441774
-0.00805773492902517,-0.00795416068285704,0.0175895970314741
-0.00486194109544158,0.00163321837317199,-0.0101072788238525
0.00472543807700276,0.00802480429410934,0.0186548586934805
0.00792123097926378,-0.00901942513883114,-0.0122378077358007
-0.00166614807676524,0.00802480429410934,0.00374115747399628
-0.0101882629096508,0.000567954499274492,-0.0037156930193305
0.00685596698895097,0.0048290123231709,0.0143938018009067
-0.00592720555141568,-0.0186068024486303,-0.0101072788238525
-0.00060088379541412,-0.00582363223657012,-0.0186293944716454
-0.00166614807676524,0.00376374716870487,0.0197201240807772
0.0015296449419111,-0.000497310247737914,0.00480642216280103
-0.0112535273656249,-0.00369310332462192,-0.0122378077358007
0.0249654594808817,-0.00582363223657012,0.00374115747399628
0.00366017362102866,0.000567954499274492,0.00693695107474923
-0.00060088379541412,0.00695953983813524,-0.0026504285633564
-0.00060088379541412,0.00376374716870487,-0.0207599233835936
0.00259490916505456,0.00802480429410934,0.0207853876054287
0.00898649543523788,0.0112205976620317,0.0101327430456877
-0.00379667733795941,0.00269848271273077,-0.00584622146561742
0.000464380573248491,-0.0207373313605785,0.01332853641361
0.00259490916505456,0.00695953983813524,-0.0239557158201933
-0.00166614807676524,0.0144163919612765,0.0261117089539766
-0.00592720555141568,0.00376374716870487,-0.00904201529920101
-0.00592720555141568,-0.00795416068285704,-0.000519900000654161
-0.00166614807676524,0.0154816564172506,0.00374115747399628
-0.0101882629096508,-0.0186068024486303,-0.0026504285633564
-0.00273141241632402,-0.00795416068285704,0.0197201240807772
-0.00379667733795941,0.0186774469912052,-0.00691148592159152
0.00792123097926378,-0.0100846895948052,-0.00797675084322691
0.00898649543523788,0.005894276779145,-0.00797675084322691
0.0111170243471861,-0.0218025967478752,0.00906747858971357
-0.00060088379541412,0.0154816564172506,-0.0047809574753046
-0.00060088379541412,0.00376374716870487,0.00374115747399628
0.00792123097926378,-0.00901942513883114,-0.0143683375790715
-0.00486194109544158,-0.000497310247737914,0.0143938018009067
-0.00273141241632402,-0.00582363223657012,0.0111980075016618
0.0143128167837858,0.00909006875008345,-0.00797675084322691
0.010051759891212,-0.00369310332462192,0.00480642216280103
-0.012318791821599,-0.00369310332462192,0.00693695107474923
0.00685596698895097,0.0048290123231709,0.0111980075016618
-0.00592720555141568,-0.00475836778059602,-0.0207599233835936
0.00366017362102866,0.0101553332060575,-0.00904201529920101
0.00259490916505456,-0.0111499540507793,0.0165243316441774
-0.00699247000738978,0.0048290123231709,0.00587168661877513
0.0111170243471861,0.0048290123231709,0.0122632719576359
0.000464380573248491,-0.0132804829627275,-0.0026504285633564
-0.012318791821599,0.00909006875008345,-0.0122378077358007
0.0143128167837858,-0.00901942513883114,0.0111980075016618
-0.00592720555141568,0.00802480429410934,-0.0164988655596972
-0.00912299938499928,0.000567954499274492,0.0346338264644146
0.00579070253297687,0.00695953983813524,-0.000519900000654161
-0.00486194109544158,0.005894276779145,0.0111980075016618
0.0111170243471861,0.0112205976620317,-0.0164988655596972
-0.00486194109544158,0.0122858621180058,0.00374115747399628
0.0121822888031602,-0.0122152185067534,-0.00904201529920101
-0.0187103785574436,-0.00582363223657012,0.00906747858971357
0.0015296449419111,0.00269848271273077,-0.0037156930193305
0.00259490916505456,-0.00795416068285704,-0.0196946579962969
0.0121822888031602,-0.000497310247737914,0.0111980075016618
0.00259490916505456,-0.0175415389239788,0.00480642216280103
-0.00273141241632402,-0.0100846895948052,0.00587168661877513
0.00259490916505456,-0.000497310247737914,0.00693695107474923
0.000464380573248491,0.00269848271273077,-0.0111725432798266
0.00366017362102866,-0.000497310247737914,0.00480642216280103
-0.00699247000738978,0.0122858621180058,-0.00584622146561742
0.00472543807700276,-0.00369310332462192,-0.0292820371687412
-0.00699247000738978,-0.0100846895948052,0.00906747858971357
0.0121822888031602,-0.00901942513883114,0.00054536439711228
-0.00379667733795941,-0.0132804829627275,-0.00584622146561742
-0.00486194109544158,0.00802480429410934,-0.00691148592159152
0.00259490916505456,-0.00156257464550436,0.00587168661877513
0.0270959883928299,0.00695953983813524,-0.0037156930193305
-0.0187103785574436,-0.00582363223657012,-0.0143683375790715
0.0132475523278117,-0.00156257464550436,-0.0143683375790715
-0.00060088379541412,-0.00262783886864781,0.00054536439711228
0.010051759891212,0.0101553332060575,0.00906747858971357
-0.00912299938499928,-0.00156257464550436,-0.0047809574753046
-0.0133840562775731,0.0112205976620317,0.01332853641361
0.000464380573248491,0.0048290123231709,-0.00691148592159152
-0.00060088379541412,-0.00688889669254422,0.0143938018009067
0.00792123097926378,0.000567954499274492,0.0175895970314741
0.00792123097926378,0.0112205976620317,-0.00797675084322691
-0.00805773492902517,-0.0111499540507793,-0.0122378077358007
0.00472543807700276,0.0240037702023983,-0.0037156930193305
-0.00379667733795941,-0.00475836778059602,0.00480642216280103
-0.00592720555141568,0.0101553332060575,0.00480642216280103
0.0121822888031602,-0.000497310247737914,-0.032477829605341
-0.0176451150327921,-0.00688889669254422,0.0101327430456877
0.000464380573248491,-0.00582363223657012,0.00054536439711228
0.00898649543523788,0.00376374716870487,-0.000519900000654161
0.00792123097926378,0.00909006875008345,-0.0026504285633564
-0.00060088379541412,-0.0143457474187017,-0.0111725432798266
0.00579070253297687,0.0165469218045473,-0.000519900000654161
0.00259490916505456,-0.00688889669254422,-0.0122378077358007
0.00685596698895097,0.00909006875008345,0.0143938018009067
-0.012318791821599,0.00695953983813524,0.00374115747399628
0.0143128167837858,0.0144163919612765,0.00267589301802218
0.00366017362102866,-0.0111499540507793,-0.0164988655596972
0.0015296449419111,0.0101553332060575,0.00480642216280103
0.000464380573248491,-0.00688889669254422,0.00267589301802218
0.010051759891212,-0.0111499540507793,-0.0186293944716454
-0.00166614807676524,0.005894276779145,0.00587168661877513
-0.00805773492902517,0.00376374716870487,0.00587168661877513
-0.00592720555141568,-0.00475836778059602,-0.00158516434021294
-0.00592720555141568,0.0048290123231709,-0.0026504285633564
0.0132475523278117,-0.0100846895948052,0.0111980075016618
-0.0240366999059916,-0.000497310247737914,-0.0037156930193305
0.0111170243471861,-0.0100846895948052,0.00267589301802218
0.000464380573248491,0.00909006875008345,-0.0143683375790715
0.00685596698895097,-0.00582363223657012,-0.0101072788238525
-0.0144493207335472,-0.0122152185067534,-0.0154336011037231
-0.00592720555141568,0.0101553332060575,0.0207853876054287
0.00685596698895097,-0.00795416068285704,0.00374115747399628
0.0015296449419111,-0.00262783886864781,-0.00584622146561742
0.00579070253297687,0.00909006875008345,-0.0026504285633564
0.00259490916505456,0.00802480429410934,0.030372766777873
-0.00912299938499928,-0.00901942513883114,-0.0026504285633564
0.0207044053822756,0.00163321837317199,-0.00691148592159152
0.00472543807700276,0.00163321837317199,-0.00158516434021294
-0.0101882629096508,-0.0239331275224686,0.00906747858971357
0.00792123097926378,0.0165469218045473,-0.00904201529920101
0.00259490916505456,-0.0154110118746758,0.00267589301802218
-0.00273141241632402,0.00909006875008345,-0.0026504285633564
0.0121822888031602,-0.00369310332462192,0.0218506529927254
-0.00060088379541412,0.00269848271273077,0.00161062914412469
-0.00592720555141568,-0.00262783886864781,-0.0228904522955418
0.00259490916505456,0.005894276779145,0.0154590662568808
0.0121822888031602,-0.0175415389239788,-0.00691148592159152
-0.00592720555141568,0.0101553332060575,-0.0164988655596972
-0.00166614807676524,-0.00475836778059602,-0.000519900000654161
0.000464380573248491,-0.00262783886864781,0.00267589301802218
0.000464380573248491,-0.00369310332462192,0.0101327430456877
-0.00273141241632402,-0.0143457474187017,-0.0037156930193305
-0.00486194109544158,0.00909006875008345,0.0175895970314741
0.000464380573248491,-0.00901942513883114,0.00693695107474923
-0.00273141241632402,-0.00262783886864781,-0.0164988655596972
0.0015296449419111,0.00163321837317199,0.01332853641361
-0.00166614807676524,-0.00688889669254422,-0.0175641290843487
-0.00060088379541412,-0.000497310247737914,0.0111980075016618
0.000464380573248491,0.0122858621180058,-0.0133030731230974
0.00472543807700276,-0.0132804829627275,-0.00691148592159152
-0.0112535273656249,0.000567954499274492,0.0122632719576359
-0.00805773492902517,0.00269848271273077,-0.00797675084322691
0.0132475523278117,0.00163321837317199,-0.0133030731230974
0.00579070253297687,0.0112205976620317,0.0101327430456877
0.00366017362102866,0.00802480429410934,-0.00158516434021294
-0.00060088379541412,0.005894276779145,-0.00904201529920101
-0.0261672288179398,-0.000497310247737914,0.0101327430456877
0.00472543807700276,-0.0111499540507793,-0.000519900000654161
-0.00486194109544158,0.0186774469912052,-0.0026504285633564
0.00792123097926378,-0.0249983929097652,0.00693695107474923
0.00259490916505456,-0.0164762753993273,0.00374115747399628
0.010051759891212,0.00163321837317199,-0.00691148592159152
-0.00699247000738978,0.0112205976620317,0.00374115747399628
-0.00592720555141568,-0.00582363223657012,0.00267589301802218
0.010051759891212,0.00269848271273077,-0.0143683375790715
0.0153780812397599,0.0101553332060575,-0.000519900000654161
-0.0112535273656249,-0.0100846895948052,-0.0037156930193305
0.0132475523278117,0.0144163919612765,0.0101327430456877
-0.00379667733795941,-0.00688889669254422,0.00906747858971357
-0.00805773492902517,0.005894276779145,-0.00584622146561742
0.0196391399949789,0.00802480429410934,-0.0111725432798266
-0.00592720555141568,-0.00688889669254422,0.00906747858971357
0.00259490916505456,-0.00688889669254422,0.01332853641361
0.00259490916505456,0.00163321837317199,0.00054536439711228
-0.00699247000738978,0.00269848271273077,-0.0037156930193305
-0.00166614807676524,0.00269848271273077,0.00267589301802218
-0.00379667733795941,0.00163321837317199,0.00054536439711228
-0.00486194109544158,-0.00369310332462192,-0.0143683375790715
0.000464380573248491,-0.00369310332462192,0.0186548586934805
-0.00166614807676524,-0.00475836778059602,-0.0111725432798266
0.00259490916505456,0.00376374716870487,0.00906747858971357
-0.00060088379541412,0.000567954499274492,-0.00584622146561742
-0.00379667733795941,-0.00582363223657012,-0.0101072788238525
-0.00592720555141568,0.005894276779145,0.0165243316441774
-0.00486194109544158,-0.00369310332462192,0.00693695107474923
0.0132475523278117,-0.00795416068285704,-0.0122378077358007
-0.00273141241632402,0.000567954499274492,-0.00904201529920101
-0.00166614807676524,0.00376374716870487,0.00161062914412469
0.0132475523278117,-0.0175415389239788,0.00374115747399628
-0.0133840562775731,0.00909006875008345,-0.0026504285633564
0.010051759891212,-0.0111499540507793,-0.0037156930193305
0.00685596698895097,-0.00262783886864781,-0.0037156930193305
-0.00379667733795941,0.000567954499274492,-0.00691148592159152
-0.00699247000738978,-0.00475836778059602,-0.0026504285633564
0.00259490916505456,-0.00582363223657012,0.00054536439711228
-0.012318791821599,-0.0111499540507793,-0.0047809574753046
-0.00273141241632402,0.0112205976620317,-0.00904201529920101
0.00579070253297687,-0.00795416068285704,-0.0037156930193305
0.0111170243471861,-0.00262783886864781,-0.0164988655596972
0.00259490916505456,0.00695953983813524,0.00693695107474923
0.000464380573248491,-0.00475836778059602,0.00587168661877513
-0.00273141241632402,-0.00156257464550436,-0.0026504285633564
0.0015296449419111,-0.000497310247737914,0.0122632719576359
0.0015296449419111,0.0101553332060575,-0.0026504285633564
-0.00273141241632402,0.00163321837317199,-0.0047809574753046
-0.00060088379541412,-0.00475836778059602,0.0154590662568808
0.00898649543523788,0.00269848271273077,0.0122632719576359
-0.00592720555141568,-0.00582363223657012,0.00800221413373947
0.00472543807700276,0.00695953983813524,0.00054536439711228
0.0015296449419111,-0.00901942513883114,0.00161062914412469
-0.00060088379541412,-0.0186068024486303,-0.00158516434021294
-0.0208409056067467,0.0165469218045473,0.0175895970314741
-0.00379667733795941,-0.0111499540507793,-0.0026504285633564
0.00366017362102866,0.0133511275053024,0.0101327430456877
-0.00805773492902517,0.00269848271273077,-0.0047809574753046
-0.00912299938499928,-0.00582363223657012,-0.0111725432798266
0.010051759891212,-0.00262783886864781,0.00480642216280103
0.00472543807700276,-0.000497310247737914,-0.00691148592159152
0.00579070253297687,0.0048290123231709,-0.0133030731230974
-0.00592720555141568,-0.00156257464550436,-0.00691148592159152
0.00366017362102866,0.0144163919612765,0.0143938018009067
0.00898649543523788,0.00163321837317199,-0.00584622146561742
0.00472543807700276,0.00163321837317199,-0.0133030731230974
-0.00912299938499928,-0.00688889669254422,0.00267589301802218
0.0111170243471861,-0.00156257464550436,-0.000519900000654161
-0.0133840562775731,-0.00795416068285704,-0.0207599233835936
-0.00379667733795941,0.000567954499274492,0.01332853641361
0.00685596698895097,0.00802480429410934,0.0101327430456877
-0.0112535273656249,0.00802480429410934,0.00267589301802218
0.00685596698895097,-0.00475836778059602,0.0122632719576359
0.00259490916505456,-0.00156257464550436,-0.000519900000654161
-0.00060088379541412,-0.0143457474187017,-0.00158516434021294
0.0153780812397599,0.00269848271273077,-0.0218251869082451
-0.00273141241632402,0.00376374716870487,0.00161062914412469
0.0132475523278117,-0.0154110118746758,0.01332853641361
0.00472543807700276,0.0229385048151016,-0.00584622146561742
-0.00379667733795941,-0.0249983929097652,0.00906747858971357
0.00259490916505456,-0.00369310332462192,-0.0164988655596972
-0.00699247000738978,0.00376374716870487,0.0154590662568808
0.00685596698895097,0.00376374716870487,-0.0228904522955418
0.0153780812397599,0.00376374716870487,-0.000519900000654161
-0.00273141241632402,-0.00369310332462192,-0.0026504285633564
0.0015296449419111,0.0122858621180058,0.0314380340278149
-0.00912299938499928,-0.0122152185067534,-0.0133030731230974
-0.00592720555141568,-0.0111499540507793,0.00587168661877513
0.00579070253297687,-0.00582363223657012,-0.00158516434021294
-0.00486194109544158,0.00376374716870487,0.00161062914412469
0.00685596698895097,0.000567954499274492,0.00800221413373947
0.0111170243471861,0.0133511275053024,-0.000519900000654161
-0.00379667733795941,-0.0175415389239788,0.00587168661877513
0.00259490916505456,-0.00262783886864781,-0.00158516434021294
-0.00592720555141568,-0.00369310332462192,-0.0101072788238525
-0.00166614807676524,-0.00901942513883114,-0.0111725432798266
-0.00273141241632402,0.00163321837317199,0.0250464454293251
0.000464380573248491,0.0112205976620317,-0.00158516434021294
-0.0133840562775731,-0.00156257464550436,0.0143938018009067
0.010051759891212,0.0048290123231709,-0.0196946579962969
-0.0144493207335472,-0.00475836778059602,-0.0037156930193305
-0.00166614807676524,-0.000497310247737914,-0.0133030731230974
-0.00912299938499928,-0.00688889669254422,0.00693695107474923
-0.00166614807676524,-0.000497310247737914,-0.0037156930193305
0.0121822888031602,-0.00369310332462192,-0.0133030731230974
0.0015296449419111,0.0122858621180058,0.00587168661877513
-0.00166614807676524,-0.00901942513883114,-0.0186293944716454
0.00579070253297687,-0.00262783886864781,0.0186548586934805
0.00366017362102866,0.00163321837317199,-0.0164988655596972
-0.00592720555141568,-0.0100846895948052,0.0250464454293251
-0.012318791821599,0.0154816564172506,0.00906747858971357
-0.00379667733795941,0.0101553332060575,0.00374115747399628
0.0015296449419111,-0.0122152185067534,-0.0047809574753046
-0.00805773492902517,0.0112205976620317,-0.0175641290843487
0.0121822888031602,-0.00901942513883114,-0.0026504285633564
0.00259490916505456,-0.0111499540507793,0.0122632719576359
-0.00273141241632402,0.0176121834665537,0.00374115747399628
-0.00166614807676524,0.00909006875008345,0.00693695107474923
0.0132475523278117,-0.00156257464550436,-0.0101072788238525
-0.00912299938499928,-0.00156257464550436,0.0282422378659248
0.00366017362102866,-0.00156257464550436,-0.0037156930193305
0.0015296449419111,0.00376374716870487,-0.000519900000654161
-0.00699247000738978,0.00376374716870487,-0.0101072788238525
0.0207044053822756,-0.00688889669254422,0.00693695107474923
-0.0197756439447403,0.0122858621180058,-0.0101072788238525
0.00472543807700276,-0.00582363223657012,-0.00904201529920101
-0.0112535273656249,0.00163321837317199,-0.0047809574753046
-0.00166614807676524,-0.00688889669254422,-0.0037156930193305
0.00579070253297687,-0.00688889669254422,0.00374115747399628
-0.00166614807676524,-0.00156257464550436,-0.0026504285633564
-0.00912299938499928,0.005894276779145,-0.0026504285633564
-0.00166614807676524,-0.0260636564344168,-0.0026504285633564
-0.00060088379541412,0.0048290123231709,-0.0101072788238525
-0.00592720555141568,0.0293300915509462,0.0165243316441774
0.0153780812397599,0.00695953983813524,-0.000519900000654161
-0.00166614807676524,-0.00369310332462192,0.00480642216280103
0.00685596698895097,0.000567954499274492,-0.00691148592159152
0.00259490916505456,0.00163321837317199,0.00054536439711228
0.00472543807700276,0.0144163919612765,-0.000519900000654161
-0.00592720555141568,-0.0175415389239788,0.00054536439711228
0.00792123097926378,0.00695953983813524,0.00693695107474923
-0.00592720555141568,-0.00795416068285704,-0.0111725432798266
-0.00379667733795941,-0.00688889669254422,0.00693695107474923
0.0111170243471861,-0.00156257464550436,-0.0207599233835936
-0.0101882629096508,0.0208079759031534,0.0186548586934805
-0.00912299938499928,-0.0132804829627275,0.01332853641361
0.00898649543523788,-0.0111499540507793,-0.0037156930193305
0.000464380573248491,0.005894276779145,0.00374115747399628
0.0132475523278117,0.0101553332060575,0.00054536439711228
-0.0101882629096508,-0.0175415389239788,-0.00584622146561742
-0.00379667733795941,-0.00156257464550436,0.0186548586934805
0.000464380573248491,0.00909006875008345,0.00161062914412469
-0.00912299938499928,0.00376374716870487,-0.0133030731230974
0.0153780812397599,0.0112205976620317,-0.0047809574753046
-0.0101882629096508,-0.0143457474187017,0.0122632719576359
0.00579070253297687,-0.00262783886864781,0.0101327430456877
0.00685596698895097,0.00802480429410934,0.00161062914412469
0.0015296449419111,0.000567954499274492,0.00161062914412469
0.00472543807700276,-0.0218025967478752,-0.0133030731230974
0.0121822888031602,0.0122858621180058,-0.00158516434021294
0.00685596698895097,-0.0207373313605785,-0.0154336011037231
-0.00379667733795941,0.0101553332060575,0.00374115747399628
0.0015296449419111,0.00695953983813524,0.00267589301802218
-0.0165798515081406,-0.00369310332462192,-0.00584622146561742
-0.00273141241632402,-0.00795416068285704,-0.0047809574753046
0.0121822888031602,-0.00156257464550436,-0.000519900000654161
-0.00912299938499928,0.00163321837317199,0.00800221413373947
0.0015296449419111,0.00269848271273077,-0.00691148592159152
0.00792123097926378,-0.00795416068285704,-0.0101072788238525
-0.00486194109544158,-0.00156257464550436,0.00374115747399628
0.00579070253297687,0.00163321837317199,0.00587168661877513
0.00898649543523788,-0.00156257464550436,0.0293075032532215
-0.00486194109544158,-0.0207373313605785,-0.00797675084322691
-0.00166614807676524,0.0048290123231709,-0.0047809574753046
-0.00592720555141568,0.00695953983813524,0.0143938018009067
0.00366017362102866,-0.00901942513883114,-0.0133030731230974
-0.0112535273656249,-0.00475836778059602,0.00906747858971357
0.000464380573248491,-0.000497310247737914,-0.0026504285633564
0.00898649543523788,0.00269848271273077,0.01332853641361
0.00792123097926378,-0.00688889669254422,-0.0186293944716454
-0.00592720555141568,0.00802480429410934,0.00587168661877513
-0.00166614807676524,-0.00262783886864781,-0.0122378077358007
0.00579070253297687,0.00376374716870487,0.00906747858971357
-0.0101882629096508,0.00802480429410934,-0.0133030731230974
-0.00379667733795941,-0.00156257464550436,0.00267589301802218
0.000464380573248491,0.00163321837317199,-0.0260862428694963
0.00366017362102866,-0.0100846895948052,0.0186548586934805
-0.00486194109544158,0.005894276779145,0.00693695107474923
0.0015296449419111,0.0048290123231709,0.00054536439711228
-0.00592720555141568,0.005894276779145,0.00693695107474923
-0.00592720555141568,0.00802480429410934,-0.0143683375790715
-0.00486194109544158,0.0048290123231709,-0.0122378077358007
-0.00805773492902517,0.00909006875008345,-0.00691148592159152
0.00366017362102866,-0.0186068024486303,0.00906747858971357
0.00366017362102866,-0.0132804829627275,-0.0122378077358007
-0.00486194109544158,0.005894276779145,-0.0164988655596972
0.00472543807700276,-0.00475836778059602,0.0197201240807772
-0.00486194109544158,-0.00262783886864781,-0.00584622146561742
0.00898649543523788,-0.00262783886864781,0.00374115747399628
0.000464380573248491,0.0165469218045473,0.00587168661877513
-0.00592720555141568,0.000567954499274492,-0.000519900000654161
0.0132475523278117,-0.0143457474187017,-0.00158516434021294
0.00472543807700276,0.000567954499274492,-0.0154336011037231
0.0153780812397599,0.0101553332060575,0.0229159165173769
-0.00486194109544158,-0.0122152185067534,-0.0164988655596972
-0.00273141241632402,0.0218732412904501,0.0101327430456877
-0.00273141241632402,0.00376374716870487,-0.00158516434021294
0.00685596698895097,-0.00475836778059602,-0.0175641290843487
0.000464380573248491,-0.00795416068285704,0.00161062914412469
0.00898649543523788,-0.00688889669254422,-0.0037156930193305
-0.00592720555141568,0.0133511275053024,-0.00904201529920101
0.0143128167837858,-0.0207373313605785,-0.0037156930193305
-0.0165798515081406,0.0229385048151016,0.00267589301802218
0.00579070253297687,-0.0100846895948052,-0.00158516434021294
0.00579070253297687,-0.00262783886864781,-0.0207599233835936
0.000464380573248491,-0.00582363223657012,-0.0186293944716454
-0.00805773492902517,0.00269848271273077,0.0282422378659248
-0.00166614807676524,-0.0100846895948052,-0.0026504285633564
-0.00060088379541412,0.0144163919612765,0.0122632719576359
0.00366017362102866,-0.0111499540507793,-0.00691148592159152
0.0185738764703274,0.0048290123231709,0.0122632719576359
-0.0314935520291328,0.0186774469912052,-0.0164988655596972
0.0175086110830307,0.0122858621180058,0.00800221413373947
-0.00379667733795941,-0.000497310247737914,-0.00584622146561742
0.00259490916505456,0.000567954499274492,0.0218506529927254
-0.00273141241632402,0.00802480429410934,-0.0175641290843487
0.00898649543523788,-0.00369310332462192,-0.0037156930193305
-0.00912299938499928,0.0122858621180058,0.0101327430456877
0.0217696689069271,-0.00901942513883114,-0.0186293944716454
0.00259490916505456,0.00376374716870487,0.0218506529927254
0.00366017362102866,0.0101553332060575,-0.027151508256793
-0.00805773492902517,0.0122858621180058,0.0122632719576359
-0.00060088379541412,-0.0154110118746758,-0.00158516434021294
-0.00379667733795941,0.0208079759031534,0.0143938018009067
-0.00379667733795941,-0.00475836778059602,-0.0111725432798266
0.00898649543523788,-0.0122152185067534,-0.00797675084322691
0.00259490916505456,-0.0122152185067534,0.00693695107474923
-0.0112535273656249,-0.00582363223657012,-0.0111725432798266
0.00685596698895097,-0.00688889669254422,-0.0037156930193305
0.0111170243471861,-0.00156257464550436,-0.00584622146561742
-0.00805773492902517,0.005894276779145,0.0293075032532215
0.00792123097926378,-0.000497310247737914,-0.0218251869082451
-0.0101882629096508,0.00802480429410934,0.0111980075016618
0.00259490916505456,-0.0111499540507793,0.00161062914412469
0.00259490916505456,0.00269848271273077,-0.0037156930193305
0.00898649543523788,0.005894276779145,0.0175895970314741
-0.00699247000738978,-0.0260636564344168,-0.0239557158201933
-0.0133840562775731,0.0048290123231709,-0.0026504285633564
0.00472543807700276,-0.0186068024486303,0.01332853641361
0.000464380573248491,-0.00582363223657012,0.00054536439711228
0.00366017362102866,0.0144163919612765,0.0143938018009067
0.00579070253297687,-0.00582363223657012,0.00374115747399628
0.00472543807700276,0.0112205976620317,0.0143938018009067
-0.0165798515081406,-0.00475836778059602,-0.0143683375790715
0.00366017362102866,0.00695953983813524,0.00906747858971357
0.0153780812397599,-0.000497310247737914,-0.0154336011037231
-0.00592720555141568,0.00802480429410934,0.00374115747399628
0.00259490916505456,0.00909006875008345,-0.000519900000654161
-0.0133840562775731,-0.00475836778059602,-0.0143683375790715
0.00259490916505456,-0.0111499540507793,0.00480642216280103
-0.00060088379541412,0.0133511275053024,-0.0122378077358007
0.00472543807700276,-0.000497310247737914,-0.0101072788238525
-0.012318791821599,-0.00901942513883114,0.0111980075016618
0.00472543807700276,-0.000497310247737914,0.00374115747399628
0.00792123097926378,-0.00475836778059602,0.00480642216280103
0.0015296449419111,0.0048290123231709,-0.00158516434021294
-0.0112535273656249,0.00695953983813524,-0.00904201529920101
-0.0187103785574436,0.000567954499274492,0.00480642216280103
0.0132475523278117,0.00802480429410934,0.00587168661877513
-0.0112535273656249,0.00802480429410934,0.00693695107474923
0.00472543807700276,-0.00156257464550436,0.0111980075016618
-0.00486194109544158,0.00163321837317199,-0.0047809574753046
0.010051759891212,0.00376374716870487,0.00054536439711228
-0.00805773492902517,0.0154816564172506,0.00374115747399628
0.00366017362102866,0.0133511275053024,-0.00158516434021294
-0.0101882629096508,-0.00688889669254422,-0.0111725432798266
-0.00592720555141568,-0.0132804829627275,0.00480642216280103
-0.00592720555141568,0.0144163919612765,0.00693695107474923
0.00898649543523788,0.00909006875008345,0.0314380340278149
-0.00592720555141568,-0.00475836778059602,-0.0196946579962969
-0.00060088379541412,-0.00688889669254422,-0.0047809574753046
-0.00379667733795941,-0.00475836778059602,0.00374115747399628
-0.00273141241632402,0.0133511275053024,-0.000519900000654161
-0.00166614807676524,0.00376374716870487,-0.00584622146561742
0.0015296449419111,-0.00156257464550436,-0.0143683375790715
0.000464380573248491,-0.0164762753993273,-0.00584622146561742
0.010051759891212,0.0101553332060575,0.00693695107474923
0.0015296449419111,0.00163321837317199,0.00374115747399628
0.000464380573248491,0.00163321837317199,0.00906747858971357
-0.00273141241632402,-0.00795416068285704,0.0143938018009067
0.00898649543523788,0.0133511275053024,-0.0207599233835936
0.00259490916505456,-0.00369310332462192,-0.0154336011037231
-0.00379667733795941,0.00376374716870487,0.00374115747399628
0.00366017362102866,-0.00156257464550436,-0.000519900000654161
-0.00805773492902517,0.00163321837317199,0.01332853641361
-0.00912299938499928,-0.00688889669254422,-0.0164988655596972
-0.00060088379541412,0.0144163919612765,0.00800221413373947
0.0015296449419111,-0.0132804829627275,0.00161062914412469
-0.00166614807676524,-0.00156257464550436,0.00161062914412469
0.010051759891212,0.000567954499274492,0.00054536439711228
0.00472543807700276,-0.00582363223657012,0.00374115747399628
-0.00699247000738978,0.0112205976620317,-0.0164988655596972
0.0015296449419111,0.00376374716870487,0.01332853641361
0.00472543807700276,0.00163321837317199,0.00054536439711228
-0.012318791821599,-0.00475836778059602,-0.0111725432798266
-0.00060088379541412,0.0048290123231709,-0.0101072788238525
-0.00273141241632402,0.00695953983813524,0.00587168661877513
0.0132475523278117,-0.000497310247737914,-0.000519900000654161
0.00579070253297687,0.00269848271273077,-0.0122378077358007
-0.00912299938499928,-0.00262783886864781,0.00800221413373947
0.016443345695734,0.0112205976620317,-0.00158516434021294
-0.0165798515081406,-0.00262783886864781,-0.0026504285633564
0.00366017362102866,-0.00688889669254422,0.0154590662568808
0.00259490916505456,-0.0164762753993273,-0.0346083603799343
-0.00379667733795941,0.00695953983813524,0.0175895970314741
-0.00592720555141568,0.00163321837317199,0.00906747858971357
0.0015296449419111,0.005894276779145,-0.0143683375790715
-0.00805773492902517,-0.000497310247737914,-0.00797675084322691
-0.00699247000738978,0.000567954499274492,0.00587168661877513
0.00366017362102866,-0.00901942513883114,0.0165243316441774
-0.00699247000738978,0.000567954499274492,0.0111980075016618
-0.0155145851895213,0.0101553332060575,-0.0047809574753046
-0.00699247000738978,-0.00901942513883114,0.00161062914412469
-0.00166614807676524,0.00802480429410934,0.0207853876054287
-0.00273141241632402,0.00163321837317199,-0.0026504285633564
-0.00805773492902517,-0.00475836778059602,-0.0207599233835936
0.0132475523278117,0.0101553332060575,0.0218506529927254
0.00472543807700276,-0.00901942513883114,-0.000519900000654161
0.00366017362102866,0.00695953983813524,0.00906747858971357
0.0121822888031602,-0.00156257464550436,-0.0111725432798266
-0.0176451150327921,0.00163321837317199,0.0111980075016618
-0.00379667733795941,0.005894276779145,-0.00584622146561742
-0.00912299938499928,0.00695953983813524,0.0154590662568808
-0.00060088379541412,0.00269848271273077,-0.0186293944716454
0.0143128167837858,0.00802480429410934,0.0207853876054287
0.00472543807700276,-0.00262783886864781,0.00906747858971357
-0.00699247000738978,0.00695953983813524,-0.0037156930193305
0.00685596698895097,-0.000497310247737914,0.00906747858971357
-0.00699247000738978,-0.0132804829627275,-0.0047809574753046
0.00259490916505456,0.0154816564172506,-0.00691148592159152
-0.00592720555141568,-0.00156257464550436,0.00161062914412469
0.00792123097926378,0.0165469218045473,-0.00904201529920101
-0.00805773492902517,0.0112205976620317,0.00161062914412469
0.0015296449419111,-0.00795416068285704,0.00800221413373947
-0.00486194109544158,-0.00475836778059602,0.0154590662568808
-0.00166614807676524,-0.0154110118746758,-0.0196946579962969
-0.012318791821599,0.00802480429410934,-0.0175641290843487
-0.00166614807676524,-0.00156257464550436,0.0111980075016618
0.00685596698895097,-0.00369310332462192,-0.00584622146561742
0.0175086110830307,-0.000497310247737914,0.0143938018009067
0.00366017362102866,0.0101553332060575,-0.0047809574753046
-0.00592720555141568,-0.00369310332462192,0.00054536439711228
0.000464380573248491,0.00695953983813524,0.00054536439711228
0.0015296449419111,0.00269848271273077,-0.0133030731230974
0.00579070253297687,-0.00262783886864781,-0.0133030731230974
0.00366017362102866,-0.0122152185067534,-0.00797675084322691
-0.012318791821599,-0.00582363223657012,0.00587168661877513
-0.00166614807676524,0.0154816564172506,-0.00691148592159152
-0.00379667733795941,0.0144163919612765,0.0346338264644146
-0.0101882629096508,0.00269848271273077,-0.0037156930193305
0.00366017362102866,0.000567954499274492,-0.0143683375790715
0.00259490916505456,-0.0111499540507793,0.00693695107474923
-0.00060088379541412,-0.00475836778059602,-0.0111725432798266
-0.00060088379541412,0.0048290123231709,-0.00584622146561742
-0.00805773492902517,0.0122858621180058,0.0186548586934805
0.00366017362102866,-0.00582363223657012,0.00054536439711228
0.00259490916505456,0.0101553332060575,0.00054536439711228
0.0175086110830307,0.000567954499274492,-0.00584622146561742
-0.00273141241632402,0.0112205976620317,-0.00158516434021294
-0.0229714345186949,0.00163321837317199,-0.0037156930193305
0.0207044053822756,-0.00369310332462192,0.00693695107474923
-0.00273141241632402,0.00376374716870487,0.00374115747399628
-0.00592720555141568,0.00802480429410934,0.00054536439711228
0.00366017362102866,-0.00475836778059602,-0.00158516434021294
0.00366017362102866,0.00269848271273077,0.00054536439711228
0.00366017362102866,0.00802480429410934,-0.00904201529920101
0.000464380573248491,-0.00262783886864781,-0.0164988655596972
-0.00805773492902517,-0.000497310247737914,0.00800221413373947
0.010051759891212,0.0133511275053024,-0.0047809574753046
-0.00060088379541412,-0.00262783886864781,0.00587168661877513
-0.0187103785574436,-0.0186068024486303,-0.0037156930193305
0.00579070253297687,0.0101553332060575,0.00800221413373947
-0.00486194109544158,-0.00262783886864781,0.0186548586934805
0.00898649543523788,0.005894276779145,-0.0122378077358007
-0.0176451150327921,-0.0111499540507793,0.0229159165173769
0.00579070253297687,0.005894276779145,0.00906747858971357
-0.012318791821599,0.0186774469912052,-0.0026504285633564
0.00898649543523788,-0.00795416068285704,0.00054536439711228
-0.0112535273656249,0.0112205976620317,-0.00584622146561742
0.000464380573248491,-0.00156257464550436,0.00374115747399628
0.00472543807700276,-0.000497310247737914,-0.0218251869082451
0.00366017362102866,-0.000497310247737914,0.00161062914412469
0.000464380573248491,0.00163321837317199,0.00267589301802218
0.00259490916505456,-0.00475836778059602,0.00374115747399628
-0.00699247000738978,-0.00156257464550436,0.00480642216280103
0.0185738764703274,-0.0143457474187017,-0.0037156930193305
-0.00699247000738978,0.0197427123785019,0.00480642216280103
-0.00805773492902517,0.00909006875008345,-0.0047809574753046
0.0111170243471861,-0.00795416068285704,0.0175895970314741
-0.00699247000738978,0.00376374716870487,-0.0175641290843487
0.00472543807700276,0.0122858621180058,0.00587168661877513
-0.00379667733795941,0.0133511275053024,-0.0037156930193305
-0.00592720555141568,-0.00901942513883114,-0.00904201529920101
-0.00060088379541412,-0.00369310332462192,-0.00584622146561742
-0.00166614807676524,0.00802480429410934,-0.0218251869082451
0.00472543807700276,-0.00156257464550436,0.0186548586934805
0.0121822888031602,0.00163321837317199,-0.037804152816534
-0.0112535273656249,0.0112205976620317,0.0197201240807772
0.00259490916505456,0.005894276779145,0.00800221413373947
-0.0144493207335472,-0.00369310332462192,0.00374115747399628
0.000464380573248491,-0.0100846895948052,0.01332853641361
-0.0197756439447403,-0.00582363223657012,-0.0186293944716454
-0.00486194109544158,0.0112205976620317,0.0207853876054287
0.000464380573248491,0.0112205976620317,-0.0037156930193305
0.000464380573248491,0.0048290123231709,0.00480642216280103
-0.00699247000738978,-0.00369310332462192,-0.00797675084322691
0.00259490916505456,-0.000497310247737914,0.0154590662568808
0.00579070253297687,0.00163321837317199,-0.00158516434021294
0.00792123097926378,0.000567954499274492,0.0186548586934805
-0.0133840562775731,-0.00901942513883114,0.00693695107474923
0.0175086110830307,0.0165469218045473,-0.00904201529920101
-0.0133840562775731,0.0176121834665537,0.00161062914412469
-0.00486194109544158,-0.00582363223657012,0.00267589301802218
0.0121822888031602,-0.0100846895948052,-0.0260862428694963
-0.00592720555141568,-0.00582363223657012,0.0111980075016618
0.0196391399949789,-0.00156257464550436,-0.027151508256793
0.000464380573248491,-0.0175415389239788,0.00161062914412469
-0.00699247000738978,-0.00156257464550436,-0.00797675084322691
0.00898649543523788,0.000567954499274492,0.00693695107474923
-0.0219061709940433,0.00163321837317199,0.00587168661877513
0.0143128167837858,0.00909006875008345,-0.0196946579962969
0.010051759891212,-0.00475836778059602,-0.000519900000654161
0.00259490916505456,-0.00688889669254422,0.00693695107474923
-0.00699247000738978,-0.000497310247737914,-0.00904201529920101
-0.00805773492902517,0.0154816564172506,0.00054536439711228
-0.00699247000738978,-0.0100846895948052,-0.0047809574753046
0.0153780812397599,-0.00156257464550436,0.0101327430456877
-0.0155145851895213,-0.0111499540507793,0.0111980075016618
0.00792123097926378,0.00802480429410934,-0.00584622146561742
0.00366017362102866,-0.022867863997817,-0.000519900000654161
-0.0176451150327921,0.00163321837317199,-0.0047809574753046
-0.00166614807676524,0.00376374716870487,-0.0101072788238525
-0.0112535273656249,0.00802480429410934,0.0175895970314741
0.00366017362102866,0.0176121834665537,0.00374115747399628
0.0153780812397599,-0.0122152185067534,0.00906747858971357
0.000464380573248491,0.00163321837317199,-0.00584622146561742
-0.0208409056067467,-0.00582363223657012,-0.000519900000654161
0.00685596698895097,-0.0100846895948052,0.00800221413373947
0.00898649543523788,-0.00262783886864781,-0.0122378077358007
0.00259490916505456,0.0101553332060575,-0.0037156930193305
-0.0144493207335472,-0.0186068024486303,-0.0026504285633564
-0.00060088379541412,0.0122858621180058,0.00800221413373947
0.000464380573248491,0.0101553332060575,-0.0122378077358007
-0.00592720555141568,0.00802480429410934,0.0122632719576359
0.0121822888031602,0.00376374716870487,0.00054536439711228
0.000464380573248491,-0.00901942513883114,-0.0047809574753046
0.0015296449419111,-0.0122152185067534,0.00161062914412469
0.000464380573248491,0.0218732412904501,0.00374115747399628
-0.0133840562775731,-0.00901942513883114,-0.0122378077358007
0.0015296449419111,-0.00262783886864781,0.00054536439711228
0.0015296449419111,-0.00156257464550436,0.00161062914412469
0.0015296449419111,-0.00369310332462192,0.00054536439711228
-0.00912299938499928,-0.00688889669254422,-0.0260862428694963
-0.00166614807676524,0.0144163919612765,-0.0037156930193305
0.00792123097926378,-0.00688889669254422,-0.0026504285633564
-0.00166614807676524,0.0154816564172506,0.0261117089539766
0.00792123097926378,-0.00901942513883114,-0.000519900000654161
0.00366017362102866,0.00695953983813524,-0.0260862428694963
-0.00699247000738978,0.0176121834665537,0.00480642216280103
0.0185738764703274,-0.0154110118746758,-0.0047809574753046
0.00685596698895097,-0.0100846895948052,0.00587168661877513
0.00898649543523788,-0.00156257464550436,-0.0133030731230974
-0.0165798515081406,0.00269848271273077,0.0175895970314741
0.0132475523278117,-0.00262783886864781,-0.0101072788238525
0.00366017362102866,0.00909006875008345,-0.0026504285633564
0.0153780812397599,0.00163321837317199,0.0207853876054287
-0.00379667733795941,0.000567954499274492,-0.00797675084322691
0.000464380573248491,-0.0143457474187017,-0.00797675084322691
0.0153780812397599,-0.00688889669254422,-0.0282167717814445
-0.0176451150327921,0.0165469218045473,0.0314380340278149
0.00472543807700276,0.00376374716870487,-0.02502098120749
0.00366017362102866,-0.00369310332462192,0.00693695107474923
-0.00699247000738978,0.0048290123231709,-0.0037156930193305
-0.00486194109544158,-0.000497310247737914,-0.00584622146561742
-0.0112535273656249,0.00163321837317199,-0.0037156930193305
0.0015296449419111,0.00695953983813524,0.0229159165173769
-0.00486194109544158,-0.0218025967478752,0.00800221413373947
-0.00060088379541412,-0.00369310332462192,-0.027151508256793
0.000464380573248491,0.0165469218045473,0.00480642216280103
0.0015296449419111,-0.00156257464550436,-0.0037156930193305
-0.00379667733795941,-0.0154110118746758,-0.000519900000654161
-0.00273141241632402,0.0144163919612765,-0.000519900000654161
0.0015296449419111,0.00269848271273077,0.0101327430456877
0.00685596698895097,0.00269848271273077,0.00800221413373947
-0.00273141241632402,0.00269848271273077,-0.032477829605341
-0.0133840562775731,0.00695953983813524,0.0101327430456877
0.00685596698895097,-0.00688889669254422,-0.0239557158201933
0.00898649543523788,0.005894276779145,0.00693695107474923
-0.00592720555141568,-0.00901942513883114,-0.0154336011037231
0.00259490916505456,0.00695953983813524,0.00480642216280103
-0.0187103785574436,0.0101553332060575,0.00267589301802218
0.000464380573248491,-0.0100846895948052,-0.0154336011037231
0.000464380573248491,-0.0143457474187017,-0.0037156930193305
-0.00273141241632402,0.00163321837317199,-0.0037156930193305
0.00259490916505456,-0.0111499540507793,-0.0122378077358007
-0.00912299938499928,0.0197427123785019,0.00374115747399628
-0.00060088379541412,-0.0122152185067534,-0.0196946579962969
-0.00166614807676524,-0.00156257464550436,-0.0207599233835936
-0.00166614807676524,-0.00475836778059602,0.00161062914412469
-0.00699247000738978,0.00695953983813524,-0.0122378077358007
-0.00592720555141568,-0.0132804829627275,0.01332853641361
0.0132475523278117,-0.00582363223657012,-0.00584622146561742
-0.00912299938499928,-0.00156257464550436,-0.00691148592159152
-0.00379667733795941,0.00695953983813524,0.0229159165173769
0.00366017362102866,-0.00582363223657012,-0.0175641290843487
0.0015296449419111,0.00163321837317199,0.00267589301802218
-0.00273141241632402,0.00376374716870487,0.00374115747399628
0.010051759891212,0.00269848271273077,-0.0111725432798266
-0.00379667733795941,-0.00475836778059602,0.01332853641361
0.0015296449419111,-0.00475836778059602,-0.0207599233835936
-0.0155145851895213,0.00695953983813524,0.0143938018009067
0.00685596698895097,-0.000497310247737914,0.00374115747399628
-0.0155145851895213,0.005894276779145,0.00800221413373947
0.00898649543523788,0.0101553332060575,-0.0111725432798266
-0.0112535273656249,-0.00795416068285704,0.01332853641361
0.0015296449419111,-0.000497310247737914,0.00906747858971357
0.010051759891212,0.000567954499274492,0.0143938018009067
-0.00166614807676524,0.0112205976620317,-0.0037156930193305
0.00472543807700276,0.005894276779145,0.0175895970314741
0.000464380573248491,-0.00475836778059602,-0.0196946579962969
-0.00273141241632402,0.00163321837317199,0.0207853876054287
-0.012318791821599,-0.0164762753993273,-0.00691148592159152
0.00472543807700276,0.0112205976620317,0.00480642216280103
0.00366017362102866,-0.00795416068285704,-0.00691148592159152
0.0196391399949789,-0.00156257464550436,-0.0047809574753046
0.00472543807700276,-0.00688889669254422,-0.0164988655596972
0.00259490916505456,0.00909006875008345,-0.000519900000654161
0.00472543807700276,-0.00369310332462192,0.00480642216280103
-0.0187103785574436,0.00695953983813524,0.01332853641361
0.00792123097926378,0.00269848271273077,-0.027151508256793
0.0153780812397599,0.0208079759031534,-0.00158516434021294
-0.0112535273656249,-0.0164762753993273,-0.00797675084322691
-0.00060088379541412,0.00695953983813524,-0.00797675084322691
0.00579070253297687,0.0101553332060575,0.00587168661877513
-0.0112535273656249,-0.0122152185067534,0.00054536439711228
0.00579070253297687,0.00269848271273077,-0.00797675084322691
-0.00273141241632402,-0.00156257464550436,-0.0133030731230974
-0.0144493207335472,0.00163321837317199,0.01332853641361
-0.00273141241632402,0.0133511275053024,-0.00158516434021294
-0.00166614807676524,-0.000497310247737914,-0.0037156930193305
-0.00912299938499928,0.005894276779145,-0.00797675084322691
0.00685596698895097,0.0112205976620317,0.0229159165173769
-0.00805773492902517,-0.0122152185067534,-0.00691148592159152
0.00472543807700276,-0.00901942513883114,0.0154590662568808
0.000464380573248491,-0.00475836778059602,-0.0175641290843487
0.00472543807700276,0.00163321837317199,0.00161062914412469
0.00366017362102866,-0.00369310332462192,0.00693695107474923
-0.0133840562775731,0.0240037702023983,0.00587168661877513
0.0111170243471861,0.0048290123231709,0.01332853641361
0.0153780812397599,0.0122858621180058,-0.0154336011037231
-0.012318791821599,-0.00475836778059602,-0.00584622146561742
0.00259490916505456,-0.00582363223657012,0.00906747858971357
0.00472543807700276,-0.00262783886864781,0.0111980075016618
-0.00805773492902517,0.00909006875008345,0.00374115747399628
-0.00592720555141568,-0.00156257464550436,-0.0133030731230974
0.00898649543523788,0.0144163919612765,0.00374115747399628
-0.00166614807676524,-0.00901942513883114,0.00693695107474923
0.0196391399949789,0.00269848271273077,0.0207853876054287
0.000464380573248491,-0.0100846895948052,-0.0282167717814445
-0.0112535273656249,0.0197427123785019,0.0335685648024082
-0.00166614807676524,-0.00262783886864781,-0.000519900000654161
0.00685596698895097,-0.0132804829627275,-0.0026504285633564
-0.00060088379541412,0.00695953983813524,-0.00158516434021294
-0.00486194109544158,-0.00475836778059602,0.0154590662568808
0.000464380573248491,-0.0122152185067534,-0.0154336011037231
-0.00060088379541412,0.005894276779145,0.01332853641361
0.0175086110830307,0.00269848271273077,-0.0239557158201933
-0.00699247000738978,0.0112205976620317,0.0143938018009067
-0.00273141241632402,-0.00156257464550436,-0.0186293944716454
0.00259490916505456,0.00376374716870487,-0.0143683375790715
-0.00060088379541412,-0.00901942513883114,0.0154590662568808
0.010051759891212,0.00376374716870487,-0.00797675084322691
-0.0101882629096508,-0.00156257464550436,0.0111980075016618
-0.00060088379541412,0.00376374716870487,0.00906747858971357
0.0153780812397599,-0.019672067835927,-0.0047809574753046
-0.0208409056067467,0.00909006875008345,-0.0154336011037231
0.016443345695734,-0.0186068024486303,-0.00584622146561742
0.00366017362102866,-0.00156257464550436,-0.00904201529920101
-0.00592720555141568,0.0101553332060575,-0.000519900000654161
-0.00166614807676524,-0.00795416068285704,0.0143938018009067
-0.00699247000738978,0.00802480429410934,-0.00584622146561742
0.00259490916505456,-0.0111499540507793,-0.0175641290843487
0.00685596698895097,0.000567954499274492,-0.0111725432798266
-0.0133840562775731,0.00269848271273077,0.0143938018009067
-0.00486194109544158,-0.0154110118746758,0.00800221413373947
-0.00486194109544158,0.0122858621180058,-0.00584622146561742
0.00898649543523788,-0.0100846895948052,-0.0037156930193305
-0.00805773492902517,0.000567954499274492,0.00800221413373947
0.010051759891212,0.00802480429410934,-0.0111725432798266
-0.00912299938499928,-0.0260636564344168,-0.00797675084322691
0.000464380573248491,0.005894276779145,0.0207853876054287
0.016443345695734,-0.00688889669254422,-0.0260862428694963
-0.00912299938499928,0.00909006875008345,0.00693695107474923
0.0015296449419111,-0.00475836778059602,-0.0026504285633564
0.0015296449419111,-0.00688889669254422,-0.0026504285633564
0.0015296449419111,0.0250690337270498,-0.0175641290843487
0.010051759891212,-0.0111499540507793,0.00693695107474923
0.00898649543523788,0.00163321837317199,0.00693695107474923
-0.0133840562775731,-0.0143457474187017,0.00587168661877513
-0.0144493207335472,0.00163321837317199,-0.0143683375790715
0.0143128167837858,-0.00688889669254422,-0.0047809574753046
-0.00912299938499928,0.0112205976620317,-0.0122378077358007
0.010051759891212,0.00163321837317199,-0.00797675084322691
-0.00912299938499928,0.00909006875008345,0.01332853641361
0.00792123097926378,-0.000497310247737914,0.00161062914412469
0.00792123097926378,-0.00795416068285704,-0.00691148592159152
-0.00699247000738978,0.00163321837317199,0.00800221413373947
0.000464380573248491,-0.00901942513883114,-0.0196946579962969
0.000464380573248491,-0.00475836778059602,0.00587168661877513
0.00898649543523788,0.00802480429410934,0.00480642216280103
-0.00273141241632402,0.00269848271273077,-0.00691148592159152
-0.00486194109544158,-0.0218025967478752,-0.00584622146561742
-0.00486194109544158,0.0154816564172506,-0.00158516434021294
-0.00912299938499928,0.00163321837317199,0.00800221413373947
0.00259490916505456,-0.0186068024486303,-0.0111725432798266
-0.00379667733795941,0.0133511275053024,-0.000519900000654161
0.00792123097926378,0.000567954499274492,-0.0101072788238525
-0.00912299938499928,-0.000497310247737914,0.0101327430456877
0.0111170243471861,-0.00688889669254422,0.00800221413373947
-0.0261672288179398,0.000567954499274492,-0.00797675084322691
0.00259490916505456,0.0112205976620317,-0.00797675084322691
-0.00060088379541412,0.000567954499274492,0.00374115747399628
-0.00166614807676524,-0.0100846895948052,0.00054536439711228
-0.00273141241632402,-0.00156257464550436,-0.00158516434021294
-0.00273141241632402,0.00376374716870487,0.00587168661877513
-0.00379667733795941,0.005894276779145,-0.0164988655596972
-0.012318791821599,0.00163321837317199,0.0101327430456877
0.00472543807700276,-0.00156257464550436,-0.0047809574753046
0.00685596698895097,-0.0186068024486303,-0.0143683375790715
-0.00486194109544158,0.00163321837317199,-0.00584622146561742
-0.00486194109544158,-0.0122152185067534,0.00054536439711228
-0.00273141241632402,0.00376374716870487,0.0282422378659248
-0.00273141241632402,0.00376374716870487,0.0165243316441774
0.0015296449419111,-0.00369310332462192,-0.0143683375790715
0.00685596698895097,-0.0132804829627275,-0.0037156930193305
0.000464380573248491,0.0240037702023983,0.00906747858971357
0.00792123097926378,-0.0164762753993273,0.00161062914412469
-0.0112535273656249,0.00802480429410934,-0.0111725432798266
0.00259490916505456,-0.00475836778059602,0.00054536439711228
-0.00805773492902517,0.000567954499274492,0.00054536439711228
-0.00166614807676524,0.000567954499274492,0.00906747858971357
0.010051759891212,0.0197427123785019,-0.0101072788238525
-0.0155145851895213,-0.00795416068285704,0.00374115747399628
0.00898649543523788,-0.00156257464550436,-0.00691148592159152
0.0121822888031602,-0.00582363223657012,-0.0026504285633564
-0.00060088379541412,0.0154816564172506,-0.0037156930193305
-0.00592720555141568,0.000567954499274492,-0.0133030731230974
0.00472543807700276,-0.00582363223657012,0.0186548586934805
-0.00912299938499928,-0.0186068024486303,0.0122632719576359
-0.00273141241632402,0.0208079759031534,-0.00584622146561742
0.00472543807700276,-0.00795416068285704,0.00906747858971357
0.000464380573248491,0.00269848271273077,-0.0154336011037231
-0.00486194109544158,0.0122858621180058,-0.0101072788238525
-0.0187103785574436,0.00802480429410934,0.0186548586934805
0.0015296449419111,-0.00688889669254422,-0.00691148592159152
0.0175086110830307,0.0208079759031534,0.00374115747399628
-0.0155145851895213,0.00269848271273077,-0.0154336011037231
0.0111170243471861,-0.0154110118746758,0.0111980075016618
0.00472543807700276,0.0154816564172506,-0.0207599233835936
-0.00805773492902517,-0.0143457474187017,-0.00691148592159152
0.00685596698895097,0.00163321837317199,0.0207853876054287
0.00685596698895097,0.00802480429410934,-0.00904201529920101
-0.0144493207335472,-0.00795416068285704,-0.0047809574753046
0.0143128167837858,-0.00795416068285704,0.00054536439711228
-0.00592720555141568,0.005894276779145,0.00800221413373947
0.00898649543523788,0.005894276779145,-0.0047809574753046
0.00792123097926378,0.005894276779145,0.0314380340278149
-0.012318791821599,-0.0132804829627275,-0.0154336011037231
0.0185738764703274,0.00695953983813524,-0.02502098120749
-0.00166614807676524,0.00376374716870487,0.0261117089539766
-0.00486194109544158,0.00376374716870487,0.01332853641361
0.00579070253297687,0.00269848271273077,0.00267589301802218
-0.00273141241632402,-0.00795416068285704,0.00054536439711228
-0.0240366999059916,0.000567954499274492,0.00054536439711228
0.0132475523278117,0.00163321837317199,0.00480642216280103
-0.012318791821599,-0.00901942513883114,-0.0026504285633564
-0.0112535273656249,-0.00688889669254422,0.00587168661877513
0.0121822888031602,0.00163321837317199,-0.00691148592159152
0.0121822888031602,-0.0132804829627275,0.00800221413373947
-0.00805773492902517,0.0112205976620317,0.00267589301802218
0.0015296449419111,0.00802480429410934,-0.000519900000654161
0.00579070253297687,-0.000497310247737914,0.00587168661877513
0.00579070253297687,0.00909006875008345,-0.0037156930193305
-0.0101882629096508,-0.0100846895948052,-0.00691148592159152
0.00898649543523788,0.00909006875008345,0.01332853641361
0.010051759891212,0.0112205976620317,0.0111980075016618
-0.00166614807676524,-0.00582363223657012,-0.00797675084322691
-0.0101882629096508,-0.00901942513883114,-0.0154336011037231
0.0015296449419111,0.0112205976620317,0.0218506529927254
0.016443345695734,0.00695953983813524,0.00693695107474923
-0.00592720555141568,0.0144163919612765,-0.0047809574753046
-0.00699247000738978,-0.00582363223657012,-0.00904201529920101
-0.0208409056067467,-0.00369310332462192,-0.000519900000654161
0.00579070253297687,0.0240037702023983,0.00800221413373947
-0.00379667733795941,0.00269848271273077,-0.00904201529920101
0.000464380573248491,-0.0100846895948052,0.00906747858971357
0.010051759891212,0.00802480429410934,0.0154590662568808
-0.0101882629096508,-0.00795416068285704,0.00161062914412469
-0.00592720555141568,0.0186774469912052,0.00161062914412469
-0.00592720555141568,-0.00901942513883114,-0.0037156930193305
0.0185738764703274,-0.00369310332462192,0.00161062914412469
0.0015296449419111,0.0101553332060575,0.00800221413373947
-0.00166614807676524,-0.00475836778059602,0.00480642216280103
-0.00166614807676524,0.0101553332060575,-0.00584622146561742
-0.00273141241632402,0.00802480429410934,0.0143938018009067
0.0015296449419111,0.0186774469912052,0.00693695107474923
-0.0144493207335472,-0.00688889669254422,0.00480642216280103
-0.00273141241632402,0.00802480429410934,-0.0026504285633564
-0.0112535273656249,0.00269848271273077,0.0197201240807772
0.00898649543523788,-0.0175415389239788,-0.0207599233835936
0.00685596698895097,0.00802480429410934,0.00587168661877513
0.00579070253297687,-0.0239331275224686,-0.00158516434021294
0.0111170243471861,0.0208079759031534,0.0293075032532215
-0.00699247000738978,-0.000497310247737914,0.00161062914412469
0.00898649543523788,0.0218732412904501,-0.0101072788238525
0.00792123097926378,-0.0207373313605785,0.0143938018009067
0.00472543807700276,0.0144163919612765,0.00587168661877513
-0.0133840562775731,0.00269848271273077,-0.00797675084322691
0.010051759891212,-0.0132804829627275,0.00054536439711228
-0.00592720555141568,0.00695953983813524,0.0122632719576359
-0.00166614807676524,-0.0111499540507793,-0.0207599233835936
0.00898649543523788,-0.00582363223657012,-0.0026504285633564
-0.00060088379541412,-0.0207373313605785,-0.0154336011037231
0.00259490916505456,0.00909006875008345,0.0122632719576359
0.00792123097926378,0.0048290123231709,0.0101327430456877
0.00792123097926378,0.005894276779145,0.00693695107474923
-0.00379667733795941,0.0048290123231709,-0.000519900000654161
-0.0101882629096508,-0.00475836778059602,0.0122632719576359
0.016443345695734,0.00909006875008345,-0.00904201529920101
-0.0101882629096508,-0.0143457474187017,-0.0026504285633564
0.00366017362102866,0.0144163919612765,0.0122632719576359
0.00685596698895097,-0.0122152185067534,-0.0239557158201933
-0.0144493207335472,0.00163321837317199,0.0175895970314741
-0.00060088379541412,0.005894276779145,-0.0154336011037231
-0.00805773492902517,-0.00901942513883114,0.0154590662568808
-0.00486194109544158,0.00909006875008345,0.0122632719576359
0.00472543807700276,0.0186774469912052,0.00480642216280103
-0.00486194109544158,-0.00475836778059602,0.0111980075016618
0.0143128167837858,0.00163321837317199,-0.00691148592159152
-0.00592720555141568,0.00163321837317199,0.0101327430456877
-0.00486194109544158,0.000567954499274492,-0.00691148592159152
0.000464380573248491,-0.0218025967478752,-0.000519900000654161
-0.00486194109544158,0.0154816564172506,-0.0154336011037231
0.0132475523278117,-0.00688889669254422,0.00374115747399628
-0.0187103785574436,-0.0100846895948052,0.0111980075016618
0.000464380573248491,0.00909006875008345,-0.0207599233835936
-0.00805773492902517,-0.00688889669254422,0.0271769743412733
-0.00273141241632402,0.005894276779145,-0.0026504285633564
0.0143128167837858,-0.0154110118746758,-0.00797675084322691
-0.00912299938499928,0.0133511275053024,0.00587168661877513
-0.0112535273656249,-0.0132804829627275,0.00374115747399628
0.00685596698895097,0.00163321837317199,0.0122632719576359
-0.0155145851895213,0.00909006875008345,-0.0133030731230974
0.000464380573248491,0.00376374716870487,-0.0037156930193305
0.00366017362102866,-0.000497310247737914,0.0218506529927254
0.000464380573248491,0.00376374716870487,-0.00691148592159152
0.010051759891212,0.0133511275053024,0.00800221413373947
-0.00699247000738978,-0.00901942513883114,-0.00904201529920101
-0.00699247000738978,-0.00795416068285704,-0.00691148592159152
0.0143128167837858,0.0144163919612765,0.0218506529927254
-0.0144493207335472,0.0112205976620317,-0.0154336011037231
0.00366017362102866,0.005894276779145,0.0154590662568808
0.0153780812397599,-0.00901942513883114,-0.0026504285633564
-0.0101882629096508,0.0101553332060575,0.00800221413373947
0.0015296449419111,-0.0122152185067534,0.00480642216280103
-0.0101882629096508,0.0208079759031534,0.0111980075016618
-0.00699247000738978,0.0101553332060575,0.00267589301802218
0.000464380573248491,0.00269848271273077,-0.00158516434021294
0.0015296449419111,0.0154816564172506,0.00161062914412469
0.00366017362102866,-0.0207373313605785,0.00374115747399628
0.000464380573248491,0.00163321837317199,-0.00691148592159152
-0.00273141241632402,0.005894276779145,-0.0228904522955418
-0.0155145851895213,-0.00156257464550436,0.00587168661877513
-0.00166614807676524,0.005894276779145,0.00906747858971357
0.00259490916505456,-0.00582363223657012,0.00906747858971357
0.00472543807700276,0.00269848271273077,-0.0026504285633564
0.00792123097926378,0.0154816564172506,0.01332853641361
0.00472543807700276,0.0112205976620317,-0.0122378077358007
-0.00699247000738978,0.000567954499274492,0.00054536439711228
0.00259490916505456,-0.0143457474187017,-0.0037156930193305
-0.00699247000738978,0.00695953983813524,-0.0122378077358007
0.00579070253297687,0.0122858621180058,-0.00158516434021294
-0.00379667733795941,0.00376374716870487,0.01332853641361
-0.00060088379541412,0.00269848271273077,-0.0133030731230974
-0.0165798515081406,-0.0132804829627275,-0.0101072788238525
0.00472543807700276,0.0208079759031534,0.00054536439711228
-0.00805773492902517,-0.00475836778059602,-0.00904201529920101
-0.00805773492902517,0.00163321837317199,0.0101327430456877
0.016443345695734,-0.00369310332462192,0.0101327430456877
-0.0187103785574436,-0.00262783886864781,-0.00691148592159152
0.0153780812397599,0.00163321837317199,-0.00584622146561742
-0.00379667733795941,0.00909006875008345,0.00267589301802218
0.0121822888031602,0.00909006875008345,-0.00691148592159152
-0.0176451150327921,-0.00688889669254422,0.00800221413373947
-0.00699247000738978,0.00376374716870487,0.00374115747399628
0.0121822888031602,-0.0100846895948052,-0.0218251869082451
-0.012318791821599,0.0218732412904501,0.0101327430456877
0.0015296449419111,-0.019672067835927,-0.0037156930193305
0.0196391399949789,-0.0100846895948052,-0.00904201529920101
-0.0133840562775731,0.000567954499274492,0.0197201240807772
0.00685596698895097,0.005894276779145,-0.0143683375790715
0.00259490916505456,-0.00369310332462192,0.00054536439711228
0.0015296449419111,-0.00582363223657012,0.00480642216280103
-0.00592720555141568,0.00695953983813524,-0.0047809574753046
-0.00592720555141568,-0.00262783886864781,-0.00158516434021294
-0.00379667733795941,0.0122858621180058,0.0122632719576359
0.00366017362102866,-0.0260636564344168,-0.0037156930193305
-0.00592720555141568,0.00695953983813524,0.00161062914412469
-0.00060088379541412,0.00269848271273077,0.00480642216280103
-0.0208409056067467,-0.00901942513883114,-0.00584622146561742
0.000464380573248491,0.0048290123231709,-0.00797675084322691
0.0015296449419111,-0.00795416068285704,0.00906747858971357
-0.00060088379541412,0.0048290123231709,0.0101327430456877
0.00472543807700276,-0.00795416068285704,-0.0133030731230974
0.0015296449419111,-0.00262783886864781,-0.0143683375790715
-0.00805773492902517,-0.00156257464550436,0.00693695107474923
-0.00060088379541412,-0.00688889669254422,-0.00797675084322691
0.00792123097926378,0.00376374716870487,0.00693695107474923
0.00259490916505456,-0.00262783886864781,-0.000519900000654161
0.00366017362102866,0.00269848271273077,0.00800221413373947
-0.00166614807676524,-0.00901942513883114,-0.0154336011037231
0.000464380573248491,-0.0111499540507793,-0.0101072788238525
0.00685596698895097,-0.00901942513883114,-0.00158516434021294
-0.00379667733795941,-0.00688889669254422,0.00906747858971357
0.00685596698895097,0.00376374716870487,0.00054536439711228
0.00579070253297687,-0.00582363223657012,0.00906747858971357
0.000464380573248491,0.00269848271273077,0.0154590662568808
-0.00166614807676524,-0.0100846895948052,0.00374115747399628
0.00685596698895097,0.005894276779145,-0.0314125642180443
-0.0176451150327921,-0.00688889669254422,0.00054536439711228
0.000464380573248491,-0.0186068024486303,-0.00691148592159152
-0.00912299938499928,-0.00475836778059602,0.00161062914412469
0.000464380573248491,0.0197427123785019,0.00054536439711228
-0.00912299938499928,-0.00369310332462192,0.00587168661877513
0.00685596698895097,0.00269848271273077,0.00374115747399628
-0.00912299938499928,-0.0186068024486303,-0.0047809574753046
0.00685596698895097,-0.000497310247737914,0.0207853876054287
-0.0101882629096508,-0.00156257464550436,-0.00797675084322691
0.000464380573248491,0.00909006875008345,0.00374115747399628
0.0111170243471861,-0.00901942513883114,-0.0101072788238525
0.00472543807700276,0.0133511275053024,0.00906747858971357
-0.00699247000738978,-0.00262783886864781,0.0122632719576359
0.00792123097926378,0.0048290123231709,-0.000519900000654161
-0.00273141241632402,-0.00475836778059602,-0.0164988655596972
-0.0101882629096508,0.00163321837317199,-0.00691148592159152
0.0121822888031602,-0.0122152185067534,0.00800221413373947
-0.00273141241632402,-0.00262783886864781,-0.00691148592159152
0.00366017362102866,-0.00795416068285704,0.0111980075016618
-0.0101882629096508,-0.0260636564344168,-0.00584622146561742
0.000464380573248491,0.0165469218045473,0.0143938018009067
0.00472543807700276,0.00695953983813524,0.00374115747399628
0.0015296449419111,-0.0132804829627275,-0.0207599233835936
-0.00379667733795941,0.005894276779145,-0.000519900000654161
0.0143128167837858,-0.00582363223657012,0.00054536439711228
-0.00592720555141568,0.00376374716870487,-0.00904201529920101
0.000464380573248491,-0.00688889669254422,-0.0122378077358007
-0.00060088379541412,0.0122858621180058,0.00054536439711228
0.00685596698895097,-0.0122152185067534,-0.0143683375790715
-0.00060088379541412,-0.00688889669254422,0.00587168661877513
0.00472543807700276,-0.000497310247737914,-0.0037156930193305
0.00366017362102866,-0.00262783886864781,-0.00904201529920101
0.0015296449419111,0.0112205976620317,0.00587168661877513
-0.00273141241632402,-0.0271289180964231,0.00054536439711228
-0.00699247000738978,0.00909006875008345,0.0154590662568808
0.00579070253297687,-0.00795416068285704,0.00906747858971357
-0.00273141241632402,-0.00901942513883114,-0.00904201529920101
-0.00805773492902517,0.0101553332060575,0.0239811800420284
0.0111170243471861,-0.0207373313605785,-0.02502098120749
-0.0112535273656249,0.0165469218045473,0.0367643572390079
0.00898649543523788,-0.00262783886864781,-0.02502098120749
-0.00379667733795941,-0.00901942513883114,0.0101327430456877
0.0281612537801266,0.00802480429410934,-0.00691148592159152
-0.0240366999059916,-0.022867863997817,0.0143938018009067
0.00898649543523788,0.00802480429410934,0.00480642216280103
-0.0165798515081406,0.0133511275053024,0.0207853876054287
-0.00273141241632402,-0.00901942513883114,-0.0218251869082451
-0.00699247000738978,-0.00262783886864781,0.0165243316441774
0.00579070253297687,-0.000497310247737914,-0.0207599233835936
-0.00379667733795941,0.0101553332060575,-0.00584622146561742
0.0121822888031602,0.00376374716870487,0.00267589301802218
0.00685596698895097,-0.00688889669254422,-0.000519900000654161
-0.00379667733795941,0.0101553332060575,0.00800221413373947
0.00792123097926378,-0.00262783886864781,0.00800221413373947
0.0121822888031602,0.0101553332060575,-0.0143683375790715
0.00579070253297687,0.0133511275053024,0.0250464454293251
-0.00273141241632402,-0.0122152185067534,0.00267589301802218
0.000464380573248491,0.0154816564172506,-0.00691148592159152
0.0121822888031602,-0.0143457474187017,-0.0143683375790715
0.000464380573248491,0.0048290123231709,0.0143938018009067
0.000464380573248491,0.00695953983813524,0.00693695107474923
-0.00060088379541412,0.00695953983813524,-0.0122378077358007
0.0175086110830307,0.00163321837317199,-0.0101072788238525
-0.0197756439447403,0.0197427123785019,0.00374115747399628
0.00366017362102866,-0.000497310247737914,0.00906747858971357
0.0015296449419111,0.00376374716870487,0.00374115747399628
-0.00699247000738978,0.00269848271273077,-0.00691148592159152
-0.00486194109544158,-0.00688889669254422,-0.0101072788238525
0.000464380573248491,0.00376374716870487,0.00587168661877513
-0.012318791821599,-0.00475836778059602,0.0143938018009067
0.0111170243471861,0.000567954499274492,0.00374115747399628
-0.0165798515081406,0.00376374716870487,-0.0122378077358007
0.00898649543523788,-0.019672067835927,0.0154590662568808
0.00472543807700276,0.0282648280262947,0.0197201240807772
0.00472543807700276,-0.00795416068285704,0.01332853641361
-0.00486194109544158,-0.00901942513883114,-0.0292820371687412
0.0196391399949789,-0.00262783886864781,0.00800221413373947
-0.0112535273656249,0.00909006875008345,0.00374115747399628
-0.00273141241632402,0.0048290123231709,-0.0207599233835936
-0.00486194109544158,-0.00688889669254422,0.0186548586934805
0.00579070253297687,0.0154816564172506,0.0154590662568808
0.00366017362102866,-0.0154110118746758,-0.0111725432798266
0.00579070253297687,0.0048290123231709,0.0101327430456877
-0.00060088379541412,0.00695953983813524,-0.0207599233835936
0.0015296449419111,-0.000497310247737914,0.00800221413373947
0.00259490916505456,0.00269848271273077,-0.0154336011037231
-0.00699247000738978,-0.00156257464550436,0.00800221413373947
0.00366017362102866,-0.00262783886864781,0.0122632719576359
0.00685596698895097,-0.0111499540507793,-0.0037156930193305
-0.012318791821599,0.0176121834665537,0.00587168661877513
0.0111170243471861,-0.00475836778059602,0.00374115747399628
0.010051759891212,-0.000497310247737914,-0.0154336011037231
0.016443345695734,-0.0122152185067534,-0.0111725432798266
0.000464380573248491,0.0165469218045473,0.00587168661877513
-0.0187103785574436,0.0144163919612765,-0.00158516434021294
0.00472543807700276,-0.0132804829627275,0.00800221413373947
-0.00060088379541412,-0.00582363223657012,0.00054536439711228
0.00472543807700276,0.000567954499274492,-0.00158516434021294
-0.00699247000738978,0.00695953983813524,0.00161062914412469
-0.00060088379541412,-0.000497310247737914,-0.0026504285633564
0.000464380573248491,0.00802480429410934,0.0239811800420284
-0.00805773492902517,0.00695953983813524,-0.000519900000654161
0.00898649543523788,-0.0132804829627275,-0.0154336011037231
-0.00486194109544158,0.00695953983813524,0.0175895970314741
-0.0101882629096508,-0.00582363223657012,-0.0143683375790715
0.000464380573248491,0.00909006875008345,0.0101327430456877
0.0270959883928299,0.00376374716870487,-0.0122378077358007
0.00792123097926378,-0.000497310247737914,0.00480642216280103
-0.00273141241632402,0.00909006875008345,0.00161062914412469
-0.0112535273656249,-0.00475836778059602,-0.000519900000654161
0.00898649543523788,-0.00688889669254422,-0.00158516434021294
-0.00166614807676524,-0.00795416068285704,0.01332853641361
0.010051759891212,0.0176121834665537,-0.0111725432798266
0.00472543807700276,0.00376374716870487,-0.00691148592159152
-0.00060088379541412,-0.0111499540507793,0.00267589301802218
0.0143128167837858,-0.0154110118746758,0.0101327430456877
-0.00486194109544158,0.0154816564172506,-0.02502098120749
-0.00166614807676524,0.00269848271273077,0.0207853876054287
0.00472543807700276,-0.00901942513883114,0.00480642216280103
-0.00912299938499928,-0.00901942513883114,-0.00584622146561742
-0.00805773492902517,-0.0143457474187017,-0.0026504285633564
-0.0155145851895213,-0.00262783886864781,0.00693695107474923
0.00685596698895097,0.0048290123231709,-0.00158516434021294
-0.0112535273656249,-0.00475836778059602,0.0186548586934805
-0.00166614807676524,-0.00901942513883114,0.00480642216280103
0.0196391399949789,-0.0143457474187017,-0.0239557158201933
0.00472543807700276,0.005894276779145,0.0111980075016618
-0.00486194109544158,0.0197427123785019,0.0101327430456877
-0.00699247000738978,-0.00582363223657012,0.0122632719576359
-0.00805773492902517,0.00909006875008345,-0.000519900000654161
0.00898649543523788,-0.00475836778059602,0.0175895970314741
-0.00486194109544158,0.00163321837317199,-0.00691148592159152
-0.00060088379541412,-0.00369310332462192,-0.00904201529920101
0.0132475523278117,-0.00795416068285704,-0.00158516434021294
0.000464380573248491,0.0101553332060575,-0.00904201529920101
-0.00592720555141568,-0.00156257464550436,0.00906747858971357
-0.00060088379541412,-0.000497310247737914,0.0154590662568808
0.000464380573248491,0.00163321837317199,-0.0122378077358007
0.00579070253297687,-0.00262783886864781,-0.000519900000654161
-0.00060088379541412,0.000567954499274492,0.01332853641361
0.0015296449419111,0.00163321837317199,-0.000519900000654161
0.0111170243471861,-0.00688889669254422,0.00054536439711228
-0.00273141241632402,-0.0111499540507793,0.00267589301802218
0.00792123097926378,0.0282648280262947,-0.0047809574753046
-0.0101882629096508,0.005894276779145,-0.00904201529920101
-0.00273141241632402,0.005894276779145,0.0239811800420284
0.000464380573248491,-0.0122152185067534,-0.00797675084322691
-0.00912299938499928,0.0144163919612765,-0.0164988655596972
-0.00486194109544158,0.00163321837317199,0.00693695107474923
0.000464380573248491,-0.0154110118746758,0.0154590662568808
0.010051759891212,-0.0100846895948052,-0.0207599233835936
-0.012318791821599,0.00695953983813524,-0.0133030731230974
0.0132475523278117,-0.00901942513883114,0.0101327430456877
-0.00805773492902517,0.0250690337270498,-0.0111725432798266
-0.0155145851895213,0.0101553332060575,-0.0026504285633564
0.0111170243471861,0.00376374716870487,0.00374115747399628
-0.00166614807676524,0.00163321837317199,-0.00691148592159152
-0.00273141241632402,0.0208079759031534,-0.00584622146561742
0.00685596698895097,-0.00688889669254422,-0.0133030731230974
-0.00060088379541412,0.00802480429410934,-0.00584622146561742
0.00259490916505456,-0.00688889669254422,0.00267589301802218
0.00259490916505456,0.00695953983813524,0.00693695107474923
-0.00379667733795941,0.0176121834665537,0.00054536439711228
-0.00379667733795941,-0.00582363223657012,-0.0133030731230974
-0.00912299938499928,0.00802480429410934,0.0186548586934805
0.00792123097926378,-0.0132804829627275,0.0229159165173769
0.00366017362102866,0.00163321837317199,0.00480642216280103
0.00898649543523788,0.00376374716870487,-0.00584622146561742
-0.0112535273656249,0.00376374716870487,-0.00904201529920101
-0.00060088379541412,-0.00688889669254422,-0.00158516434021294
0.00259490916505456,-0.0122152185067534,-0.0111725432798266
-0.00060088379541412,0.0112205976620317,0.0250464454293251
-0.00805773492902517,-0.00688889669254422,0.00800221413373947
0.0111170243471861,-0.00262783886864781,0.00267589301802218
-0.0176451150327921,0.00269848271273077,-0.00158516434021294
0.0015296449419111,-0.0100846895948052,0.00054536439711228
-0.0133840562775731,0.0261342991143465,0.0101327430456877
0.00579070253297687,-0.00795416068285704,-0.0047809574753046
0.000464380573248491,0.0218732412904501,-0.000519900000654161
0.00366017362102866,-0.0111499540507793,0.00800221413373947
-0.00592720555141568,-0.00156257464550436,-0.00158516434021294
-0.00486194109544158,-0.00901942513883114,-0.000519900000654161
-0.00166614807676524,0.0154816564172506,-0.00797675084322691
0.016443345695734,-0.0143457474187017,-0.00158516434021294
-0.00805773492902517,-0.00475836778059602,0.0111980075016618
0.00259490916505456,0.00909006875008345,0.00161062914412469
-0.00805773492902517,-0.00369310332462192,0.00161062914412469
0.00259490916505456,-0.00795416068285704,0.00800221413373947
0.0015296449419111,-0.0111499540507793,-0.0101072788238525
0.00898649543523788,0.0112205976620317,0.00587168661877513
0.000464380573248491,-0.019672067835927,-0.000519900000654161
0.0121822888031602,0.00163321837317199,-0.0122378077358007
-0.00805773492902517,0.0133511275053024,0.00374115747399628
0.00259490916505456,0.00376374716870487,0.0175895970314741
-0.0144493207335472,0.00909006875008345,-0.0047809574753046
0.00579070253297687,0.005894276779145,0.0122632719576359
0.00579070253297687,-0.0239331275224686,0.00800221413373947
-0.00912299938499928,0.0165469218045473,-0.0175641290843487
-0.00166614807676524,0.00163321837317199,0.00693695107474923
-0.0112535273656249,0.0112205976620317,0.0229159165173769
-0.00592720555141568,-0.00475836778059602,-0.0111725432798266
0.0015296449419111,0.005894276779145,0.00374115747399628
0.0121822888031602,0.005894276779145,-0.00904201529920101
-0.00166614807676524,-0.0154110118746758,0.00693695107474923
0.0207044053822756,0.00909006875008345,0.00587168661877513
0.00685596698895097,0.000567954499274492,-0.00797675084322691
-0.0165798515081406,-0.019672067835927,0.00374115747399628
-0.00060088379541412,0.0186774469912052,0.00374115747399628
-0.00592720555141568,-0.0175415389239788,0.0122632719576359
0.0153780812397599,0.00909006875008345,-0.000519900000654161
-0.012318791821599,0.00163321837317199,-0.00584622146561742
0.00366017362102866,-0.00156257464550436,0.0367643572390079
-0.00699247000738978,0.0101553332060575,-0.0154336011037231
0.0121822888031602,-0.0207373313605785,-0.00158516434021294
0.000464380573248491,-0.0111499540507793,-0.00797675084322691
0.00898649543523788,0.0144163919612765,-0.000519900000654161
-0.00912299938499928,-0.00262783886864781,-0.00584622146561742
-0.0165798515081406,-0.00156257464550436,-0.000519900000654161
0.00259490916505456,0.0293300915509462,0.01332853641361
0.00366017362102866,-0.0186068024486303,-0.0133030731230974
-0.00486194109544158,-0.00156257464550436,0.00161062914412469
0.00472543807700276,-0.00262783886864781,-0.00584622146561742
-0.00699247000738978,-0.00475836778059602,-0.0154336011037231
0.00685596698895097,0.000567954499274492,0.00161062914412469
0.00366017362102866,-0.000497310247737914,0.00267589301802218
0.00366017362102866,-0.0132804829627275,-0.0143683375790715
-0.00166614807676524,-0.00475836778059602,-0.0122378077358007
-0.00592720555141568,0.00269848271273077,0.00906747858971357
0.0121822888031602,-0.0154110118746758,-0.0228904522955418
0.00579070253297687,0.00163321837317199,0.0175895970314741
0.00366017362102866,-0.0100846895948052,-0.0047809574753046
-0.0101882629096508,0.0048290123231709,-0.0196946579962969
0.00579070253297687,-0.0100846895948052,0.00800221413373947
-0.00912299938499928,0.005894276779145,0.00161062914412469
-0.00486194109544158,0.00163321837317199,-0.0037156930193305
0.0111170243471861,0.005894276779145,0.00267589301802218
-0.00273141241632402,-0.00369310332462192,-0.00584622146561742
-0.00486194109544158,0.000567954499274492,-0.0026504285633564
-0.00592720555141568,-0.0164762753993273,0.00800221413373947
-0.0144493207335472,0.0112205976620317,-0.0143683375790715
-0.00060088379541412,-0.00475836778059602,0.01332853641361
-0.00273141241632402,-0.00582363223657012,0.00374115747399628
0.0015296449419111,0.00802480429410934,0.00161062914412469
-0.0101882629096508,0.0133511275053024,0.0154590662568808
-0.00486194109544158,0.00376374716870487,-0.027151508256793
0.0015296449419111,-0.00582363223657012,0.00693695107474923
-0.00273141241632402,0.0112205976620317,0.00480642216280103
0.00366017362102866,-0.00475836778059602,-0.000519900000654161
0.00259490916505456,0.0122858621180058,-0.0218251869082451
-0.00060088379541412,-0.000497310247737914,0.00267589301802218
-0.00699247000738978,0.0176121834665537,-0.00797675084322691
0.00685596698895097,-0.00901942513883114,0.00693695107474923
-0.00699247000738978,0.0218732412904501,0.0122632719576359
0.0239001959562302,-0.0111499540507793,-0.00158516434021294
-0.00486194109544158,-0.0132804829627275,0.00587168661877513
-0.00273141241632402,-0.00369310332462192,-0.00691148592159152
0.00366017362102866,0.00269848271273077,0.00054536439711228
0.00579070253297687,0.0261342991143465,0.00267589301802218
0.00898649543523788,0.00163321837317199,-0.0292820371687412
-0.0112535273656249,0.0048290123231709,0.0143938018009067
-0.00379667733795941,0.00909006875008345,0.00267589301802218
-0.00166614807676524,-0.00475836778059602,0.00480642216280103
-0.012318791821599,0.00909006875008345,0.00587168661877513
0.0207044053822756,-0.00795416068285704,-0.00584622146561742
-0.0101882629096508,0.00376374716870487,0.00587168661877513
-0.00060088379541412,0.00163321837317199,0.00267589301802218
0.000464380573248491,-0.0100846895948052,0.00906747858971357
0.0196391399949789,0.000567954499274492,0.00374115747399628
-0.00060088379541412,0.00163321837317199,-0.0282167717814445
-0.0144493207335472,0.0122858621180058,0.0250464454293251
0.00366017362102866,0.00695953983813524,-0.00584622146561742
0.000464380573248491,-0.00582363223657012,0.00906747858971357
0.00579070253297687,-0.000497310247737914,0.00374115747399628
0.0121822888031602,-0.00369310332462192,-0.0218251869082451
0.010051759891212,-0.0143457474187017,0.00480642216280103
-0.00592720555141568,-0.00156257464550436,-0.00691148592159152
0.0121822888031602,-0.0122152185067534,-0.00797675084322691
-0.00912299938499928,-0.00688889669254422,-0.0037156930193305
0.00898649543523788,-0.000497310247737914,-0.00904201529920101
0.00259490916505456,-0.00795416068285704,-0.0026504285633564
-0.00379667733795941,0.00695953983813524,0.00693695107474923
0.00472543807700276,-0.00262783886864781,-0.0196946579962969
0.0111170243471861,-0.00688889669254422,-0.0111725432798266
-0.00699247000738978,-0.0154110118746758,-0.0047809574753046
0.0015296449419111,0.0144163919612765,0.00693695107474923
0.00898649543523788,-0.00795416068285704,-0.00158516434021294
-0.00592720555141568,0.0112205976620317,-0.0101072788238525
0.00898649543523788,0.00163321837317199,0.0229159165173769
-0.00273141241632402,0.00802480429410934,-0.0111725432798266
-0.00166614807676524,-0.00795416068285704,0.00587168661877513
-0.00486194109544158,0.000567954499274492,-0.0026504285633564
-0.0144493207335472,0.0176121834665537,-0.0026504285633564
0.0175086110830307,-0.0100846895948052,0.0122632719576359
-0.012318791821599,-0.00475836778059602,-0.0026504285633564
0.00366017362102866,0.0218732412904501,0.00693695107474923
0.00472543807700276,0.00376374716870487,-0.00691148592159152
0.00792123097926378,-0.0207373313605785,0.0122632719576359
-0.00273141241632402,0.00909006875008345,-0.0037156930193305
0.00579070253297687,-0.0132804829627275,0.0207853876054287
-0.012318791821599,0.00163321837317199,-0.0037156930193305
-0.00379667733795941,-0.00369310332462192,-0.00158516434021294
-0.0101882629096508,0.00802480429410934,0.00800221413373947
-0.00060088379541412,-0.0122152185067534,-0.00691148592159152
0.0015296449419111,-0.00475836778059602,0.01332853641361
-0.00592720555141568,0.00376374716870487,0.0154590662568808
-0.00699247000738978,-0.000497310247737914,0.00374115747399628
-0.00379667733795941,-0.00582363223657012,-0.0143683375790715
0.0015296449419111,-0.0100846895948052,-0.0186293944716454
0.00579070253297687,0.0165469218045473,-0.00904201529920101
0.00685596698895097,-0.00475836778059602,0.00480642216280103
0.00792123097926378,-0.0175415389239788,0.00480642216280103
-0.00486194109544158,0.0144163919612765,-0.00691148592159152
0.00259490916505456,-0.0122152185067534,-0.0026504285633564
0.0143128167837858,0.0133511275053024,0.00906747858971357
-0.0101882629096508,-0.00262783886864781,0.00800221413373947
0.00898649543523788,0.000567954499274492,-0.00691148592159152
-0.00486194109544158,0.00163321837317199,-0.00584622146561742
-0.00060088379541412,0.0112205976620317,-0.000519900000654161
-0.00060088379541412,-0.0154110118746758,0.00800221413373947
0.00792123097926378,-0.0111499540507793,-0.000519900000654161
-0.00273141241632402,-0.0175415389239788,0.0111980075016618
-0.00379667733795941,0.000567954499274492,-0.00904201529920101
0.0015296449419111,0.005894276779145,0.0122632719576359
-0.00912299938499928,-0.00156257464550436,0.0111980075016618
-0.00592720555141568,-0.00901942513883114,-0.0122378077358007
0.00579070253297687,0.00909006875008345,0.0111980075016618
-0.0101882629096508,-0.00262783886864781,-0.0196946579962969
0.00792123097926378,-0.00582363223657012,-0.00584622146561742
-0.00060088379541412,-0.00156257464550436,-0.0111725432798266
-0.00166614807676524,0.0048290123231709,0.00693695107474923
-0.00379667733795941,-0.00262783886864781,-0.0207599233835936
-0.00379667733795941,0.0101553332060575,0.00267589301802218
0.00259490916505456,-0.0154110118746758,-0.0037156930193305
0.00685596698895097,0.000567954499274492,-0.00797675084322691
-0.00592720555141568,0.00269848271273077,0.0218506529927254
0.0111170243471861,-0.0143457474187017,-0.0037156930193305
0.000464380573248491,0.0165469218045473,-0.00158516434021294
-0.00699247000738978,-0.0143457474187017,0.00161062914412469
0.00685596698895097,0.0197427123785019,-0.0037156930193305
-0.00060088379541412,0.005894276779145,0.00267589301802218
-0.00060088379541412,-0.00369310332462192,0.00374115747399628
-0.00486194109544158,-0.00156257464550436,0.00374115747399628
-0.00912299938499928,0.00376374716870487,0.00800221413373947
0.0143128167837858,-0.0154110118746758,-0.0122378077358007
-0.0176451150327921,-0.00369310332462192,0.0111980075016618
0.00579070253297687,0.00695953983813524,-0.00584622146561742
0.0153780812397599,-0.00795416068285704,-0.0047809574753046
0.00579070253297687,-0.00688889669254422,0.0165243316441774
0.00259490916505456,0.005894276779145,-0.00158516434021294
-0.00060088379541412,0.00269848271273077,0.0101327430456877
0.00472543807700276,0.00802480429410934,0.0218506529927254
-0.00805773492902517,0.0101553332060575,-0.00797675084322691
-0.00166614807676524,0.00695953983813524,0.0143938018009067
-0.00805773492902517,-0.0271289180964231,-0.0186293944716454
0.0217696689069271,0.00695953983813524,0.0229159165173769
-0.00699247000738978,-0.000497310247737914,-0.00797675084322691
-0.00273141241632402,-0.0132804829627275,-0.0026504285633564
0.00685596698895097,-0.00475836778059602,-0.0047809574753046
0.0111170243471861,-0.000497310247737914,0.0143938018009067
0.00472543807700276,-0.00156257464550436,-0.02502098120749
-0.0101882629096508,-0.00688889669254422,0.0111980075016618
0.0111170243471861,0.0122858621180058,-0.0026504285633564
-0.00699247000738978,-0.00262783886864781,0.0165243316441774
-0.00060088379541412,-0.00901942513883114,-0.00797675084322691
0.00685596698895097,0.0133511275053024,0.0175895970314741
-0.0101882629096508,-0.0143457474187017,-0.0037156930193305
0.0111170243471861,0.0112205976620317,-0.02502098120749
-0.00805773492902517,0.00163321837317199,0.00800221413373947
0.0121822888031602,0.00695953983813524,-0.00904201529920101
-0.00379667733795941,-0.00369310332462192,-0.0175641290843487
-0.00379667733795941,-0.0100846895948052,0.00480642216280103
-0.00486194109544158,0.0165469218045473,0.00267589301802218
-0.00699247000738978,0.00269848271273077,0.030372766777873
0.00792123097926378,0.0133511275053024,-0.0111725432798266
-0.00060088379541412,-0.00369310332462192,-0.0037156930193305
0.000464380573248491,0.00802480429410934,-0.0047809574753046
0.00472543807700276,0.005894276779145,-0.0133030731230974
-0.00060088379541412,-0.000497310247737914,-0.0133030731230974
0.00259490916505456,0.00802480429410934,0.00480642216280103
0.0015296449419111,-0.00688889669254422,0.00161062914412469
-0.0165798515081406,-0.00262783886864781,-0.00797675084322691
0.00792123097926378,-0.0100846895948052,0.01332853641361
-0.00379667733795941,0.0261342991143465,0.00906747858971357
0.00472543807700276,-0.00688889669254422,-0.0037156930193305
0.00366017362102866,0.000567954499274492,0.0143938018009067
0.0121822888031602,-0.00795416068285704,-0.0122378077358007
0.00685596698895097,-0.00262783886864781,0.0197201240807772
-0.012318791821599,0.00163321837317199,-0.0047809574753046
0.00792123097926378,-0.00901942513883114,-0.0196946579962969
0.00898649543523788,0.00802480429410934,-0.00797675084322691
0.00472543807700276,0.0048290123231709,0.0165243316441774
-0.00592720555141568,-0.0122152185067534,0.00480642216280103
0.00366017362102866,0.0101553332060575,0.00267589301802218
-0.0133840562775731,-0.0175415389239788,-0.0026504285633564
0.00259490916505456,0.0133511275053024,0.00374115747399628
-0.00379667733795941,0.000567954499274492,-0.00158516434021294
0.00898649543523788,-0.0100846895948052,-0.000519900000654161
-0.0112535273656249,-0.0111499540507793,0.00054536439711228
0.000464380573248491,0.00376374716870487,-0.0111725432798266
0.010051759891212,-0.0100846895948052,0.00480642216280103
-0.00592720555141568,0.00802480429410934,-0.0154336011037231
-0.00699247000738978,-0.00262783886864781,0.00693695107474923
0.00898649543523788,0.00269848271273077,-0.0037156930193305
-0.00273141241632402,-0.00901942513883114,0.0154590662568808
-0.00486194109544158,-0.0111499540507793,-0.0133030731230974
0.00366017362102866,0.0048290123231709,0.0175895970314741
0.00259490916505456,-0.000497310247737914,-0.0047809574753046
-0.00805773492902517,0.0122858621180058,0.00693695107474923
0.0121822888031602,0.00163321837317199,-0.0037156930193305
-0.00699247000738978,-0.0218025967478752,-0.0175641290843487
0.00259490916505456,-0.00582363223657012,0.00800221413373947
0.00472543807700276,0.00376374716870487,0.00267589301802218
-0.0112535273656249,-0.00901942513883114,-0.0101072788238525
0.00579070253297687,-0.00795416068285704,0.00800221413373947
0.00792123097926378,0.00909006875008345,-0.0037156930193305
0.00685596698895097,-0.0122152185067534,-0.0186293944716454
-0.0187103785574436,-0.00156257464550436,0.0143938018009067
0.0143128167837858,0.00695953983813524,-0.00797675084322691
-0.00805773492902517,0.0154816564172506,0.00587168661877513
-0.0112535273656249,-0.0100846895948052,0.00693695107474923
0.00685596698895097,-0.00475836778059602,-0.00904201529920101
0.00472543807700276,0.00802480429410934,0.0101327430456877
0.00579070253297687,-0.000497310247737914,-0.00797675084322691
0.000464380573248491,0.00269848271273077,0.0101327430456877
-0.00273141241632402,0.00909006875008345,0.0197201240807772
-0.00379667733795941,-0.00262783886864781,0.01332853641361
0.00792123097926378,0.0122858621180058,-0.000519900000654161
-0.00592720555141568,0.00163321837317199,0.0122632719576359
0.00259490916505456,-0.00262783886864781,-0.0122378077358007
0.00579070253297687,-0.000497310247737914,0.0101327430456877
-0.0112535273656249,-0.00795416068285704,0.01332853641361
0.0015296449419111,0.0122858621180058,-0.0228904522955418
-0.00805773492902517,-0.00901942513883114,0.0122632719576359
0.00472543807700276,-0.00369310332462192,0.00800221413373947
-0.00486194109544158,-0.00475836778059602,0.0143938018009067
0.00792123097926378,0.000567954499274492,-0.000519900000654161
-0.0112535273656249,0.005894276779145,0.01332853641361
0.0143128167837858,-0.0143457474187017,0.00267589301802218
-0.0144493207335472,-0.00901942513883114,-0.0154336011037231
0.00259490916505456,0.000567954499274492,0.00374115747399628
0.00472543807700276,0.00909006875008345,-0.00904201529920101
-0.00805773492902517,-0.00475836778059602,-0.0133030731230974
0.0015296449419111,-0.00582363223657012,-0.00904201529920101
-0.00060088379541412,-0.00901942513883114,-0.0037156930193305
-0.0155145851895213,-0.00156257464550436,-0.000519900000654161
0.00472543807700276,-0.0100846895948052,-0.0101072788238525
-0.00805773492902517,0.0048290123231709,0.01332853641361
-0.00273141241632402,-0.022867863997817,0.0154590662568808
0.00685596698895097,-0.00475836778059602,0.0101327430456877
-0.00592720555141568,-0.00795416068285704,-0.0111725432798266
0.00685596698895097,-0.00475836778059602,0.0111980075016618
0.00685596698895097,0.00269848271273077,0.0175895970314741
0.00366017362102866,0.00376374716870487,-0.00904201529920101
0.000464380573248491,0.00269848271273077,-0.0047809574753046
-0.00273141241632402,0.00695953983813524,-0.00691148592159152
0.00366017362102866,-0.00369310332462192,0.0122632719576359
-0.00805773492902517,-0.00156257464550436,-0.0101072788238525
-0.00060088379541412,-0.00688889669254422,-0.0154336011037231
-0.00166614807676524,-0.00475836778059602,0.0165243316441774
-0.0133840562775731,0.005894276779145,0.0143938018009067
-0.00273141241632402,0.0048290123231709,-0.0228904522955418
0.0153780812397599,0.0048290123231709,0.00693695107474923
-0.00379667733795941,-0.000497310247737914,0.0186548586934805
-0.0101882629096508,-0.00582363223657012,0.0122632719576359
-0.00592720555141568,0.0176121834665537,-0.0122378077358007
-0.00592720555141568,-0.00901942513883114,0.00480642216280103
0.00366017362102866,-0.00475836778059602,0.0175895970314741
0.00792123097926378,-0.00795416068285704,-0.0346083603799343
-0.00166614807676524,0.00802480429410934,0.00161062914412469
0.0207044053822756,0.0112205976620317,0.0197201240807772
-0.0187103785574436,-0.0122152185067534,-0.0292820371687412
0.0111170243471861,0.00376374716870487,0.00480642216280103
-0.0155145851895213,0.0133511275053024,0.00800221413373947
0.0175086110830307,-0.00369310332462192,-0.0175641290843487
-0.00805773492902517,-0.0111499540507793,-0.0026504285633564
0.00366017362102866,-0.00156257464550436,-0.00584622146561742
0.00366017362102866,-0.0111499540507793,-0.0218251869082451
0.000464380573248491,0.0165469218045473,0.0197201240807772
0.0015296449419111,0.00376374716870487,-0.0175641290843487
-0.00699247000738978,-0.00901942513883114,0.00480642216280103
-0.00060088379541412,-0.0100846895948052,-0.00158516434021294
0.0153780812397599,0.0101553332060575,0.0165243316441774
-0.00805773492902517,0.0048290123231709,0.00374115747399628
0.0111170243471861,0.0154816564172506,-0.0037156930193305
-0.0197756439447403,-0.00688889669254422,0.0197201240807772
0.0175086110830307,0.0101553332060575,0.00161062914412469
0.0015296449419111,-0.00475836778059602,0.00161062914412469
0.00366017362102866,-0.00369310332462192,-0.00584622146561742
0.0015296449419111,-0.00262783886864781,0.00906747858971357
0.0121822888031602,-0.00262783886864781,0.00906747858971357
-0.00592720555141568,-0.00795416068285704,-0.00797675084322691
0.0111170243471861,0.0144163919612765,0.00587168661877513
-0.00592720555141568,0.00802480429410934,0.00161062914412469
-0.00912299938499928,-0.000497310247737914,-0.00158516434021294
0.0175086110830307,-0.0143457474187017,-0.00797675084322691
0.010051759891212,-0.00582363223657012,-0.00904201529920101
-0.00166614807676524,-0.00369310332462192,-0.0047809574753046
-0.00060088379541412,-0.0111499540507793,-0.0164988655596972
0.0260307248681784,0.0218732412904501,0.00906747858971357
-0.012318791821599,0.0048290123231709,-0.0133030731230974
0.0153780812397599,0.00163321837317199,0.0250464454293251
0.010051759891212,-0.00156257464550436,0.00161062914412469
0.00685596698895097,-0.00262783886864781,0.00374115747399628
-0.0155145851895213,-0.000497310247737914,-0.0154336011037231
0.016443345695734,-0.00582363223657012,0.00161062914412469
-0.00912299938499928,0.00376374716870487,-0.0026504285633564
0.0132475523278117,0.00909006875008345,-0.0164988655596972
-0.0101882629096508,-0.00582363223657012,0.00800221413373947
-0.00699247000738978,0.00695953983813524,-0.00904201529920101
0.00472543807700276,-0.00475836778059602,0.00054536439711228
0.0015296449419111,0.0048290123231709,0.00267589301802218
-0.00805773492902517,0.0133511275053024,0.00480642216280103
0.00792123097926378,0.00695953983813524,0.00800221413373947
-0.00273141241632402,-0.0111499540507793,-0.0101072788238525
0.000464380573248491,0.0165469218045473,0.00267589301802218
-0.00273141241632402,0.00163321837317199,-0.00691148592159152
-0.00166614807676524,-0.0111499540507793,0.00587168661877513
0.00792123097926378,0.005894276779145,0.00587168661877513
0.00579070253297687,-0.0132804829627275,0.00374115747399628
0.0015296449419111,0.000567954499274492,-0.000519900000654161
-0.00592720555141568,0.005894276779145,0.00267589301802218
0.00259490916505456,0.00376374716870487,0.00906747858971357
-0.012318791821599,0.00269848271273077,0.00054536439711228
0.00685596698895097,0.00269848271273077,0.00587168661877513
0.00792123097926378,-0.000497310247737914,-0.00584622146561742
-0.00486194109544158,0.00163321837317199,0.00587168661877513
-0.00379667733795941,0.0165469218045473,-0.000519900000654161
0.00579070253297687,-0.00795416068285704,0.00054536439711228
0.000464380573248491,-0.00369310332462192,0.00587168661877513
0.0175086110830307,0.00376374716870487,-0.0133030731230974
-0.00805773492902517,-0.00475836778059602,0.00374115747399628
0.00366017362102866,-0.000497310247737914,0.00693695107474923
0.0143128167837858,-0.00688889669254422,0.00054536439711228
0.00259490916505456,0.0101553332060575,-0.00158516434021294
0.0015296449419111,-0.0100846895948052,-0.00158516434021294
0.0015296449419111,0.0101553332060575,0.00054536439711228
-0.00699247000738978,-0.00156257464550436,0.00161062914412469
-0.00379667733795941,0.0101553332060575,-0.0228904522955418
0.0132475523278117,-0.00262783886864781,-0.0026504285633564
-0.00699247000738978,-0.00688889669254422,0.0154590662568808
0.0207044053822756,-0.00795416068285704,0.0175895970314741
0.00259490916505456,0.00695953983813524,-0.027151508256793
-0.0112535273656249,-0.00582363223657012,0.00161062914412469
0.000464380573248491,-0.00475836778059602,-0.0218251869082451
0.0015296449419111,0.0165469218045473,0.0207853876054287
-0.00912299938499928,0.00163321837317199,-0.0037156930193305
0.0121822888031602,-0.00795416068285704,-0.00691148592159152
-0.00805773492902517,-0.0154110118746758,-0.00584622146561742
-0.00379667733795941,0.0197427123785019,0.0122632719576359
-0.0176451150327921,-0.00582363223657012,-0.0026504285633564
0.00259490916505456,0.00376374716870487,0.00054536439711228
0.010051759891212,0.00695953983813524,0.00906747858971357
-0.00805773492902517,-0.00582363223657012,0.0175895970314741
0.00579070253297687,0.0154816564172506,-0.0101072788238525
0.00579070253297687,-0.00369310332462192,0.00161062914412469
-0.0155145851895213,0.005894276779145,0.00587168661877513
0.0121822888031602,-0.0175415389239788,0.00480642216280103
0.0015296449419111,-0.0122152185067534,-0.0133030731230974
0.00685596698895097,0.00163321837317199,0.0122632719576359
0.00579070253297687,-0.0186068024486303,0.0122632719576359
-0.00805773492902517,0.00909006875008345,-0.0154336011037231
0.00579070253297687,-0.00262783886864781,0.00800221413373947
-0.0101882629096508,0.0208079759031534,0.00906747858971357
0.000464380573248491,-0.0186068024486303,-0.0207599233835936
0.00259490916505456,-0.00156257464550436,0.0218506529927254
-0.0229714345186949,0.0208079759031534,-0.00904201529920101
0.0015296449419111,-0.00475836778059602,0.00906747858971357
0.0143128167837858,0.0122858621180058,-0.00584622146561742
-0.0101882629096508,-0.0100846895948052,0.01332853641361
0.000464380573248491,0.000567954499274492,-0.00691148592159152
0.00472543807700276,-0.00156257464550436,0.00800221413373947
-0.00060088379541412,0.0133511275053024,0.00693695107474923
0.0111170243471861,-0.0154110118746758,-0.00584622146561742
-0.00912299938499928,-0.000497310247737914,0.00800221413373947
0.0015296449419111,0.00695953983813524,-0.000519900000654161
-0.0144493207335472,-0.0111499540507793,0.00587168661877513
0.00685596698895097,0.0176121834665537,-0.00691148592159152
-0.00699247000738978,0.00909006875008345,0.00161062914412469
-0.012318791821599,-0.00262783886864781,0.0122632719576359
-0.0101882629096508,0.0101553332060575,-0.0101072788238525
0.000464380573248491,0.0133511275053024,0.00054536439711228
0.00472543807700276,0.000567954499274492,0.00267589301802218
0.00366017362102866,0.000567954499274492,0.0143938018009067
-0.0144493207335472,-0.00795416068285704,0.0186548586934805
0.000464380573248491,0.0133511275053024,0.00161062914412469
-0.00699247000738978,-0.00688889669254422,-0.00584622146561742
-0.00273141241632402,0.00269848271273077,0.0186548586934805
0.00472543807700276,0.00163321837317199,-0.00691148592159152
-0.00273141241632402,0.00269848271273077,-0.000519900000654161
0.00366017362102866,0.005894276779145,0.00161062914412469
0.00792123097926378,-0.00156257464550436,-0.0133030731230974
-0.00699247000738978,-0.00156257464550436,0.0239811800420284
-0.00273141241632402,0.00909006875008345,-0.0037156930193305
0.000464380573248491,-0.00795416068285704,-0.00691148592159152
0.00472543807700276,0.00269848271273077,-0.0047809574753046
-0.0208409056067467,0.00376374716870487,0.01332853641361
0.00685596698895097,0.000567954499274492,-0.0164988655596972
-0.00805773492902517,0.005894276779145,0.0154590662568808
-0.00060088379541412,0.0154816564172506,-0.00797675084322691
-0.0112535273656249,0.000567954499274492,-0.0047809574753046
-0.00166614807676524,0.0112205976620317,0.00906747858971357
-0.00060088379541412,-0.0111499540507793,0.00374115747399628
-0.0112535273656249,-0.00156257464550436,-0.0026504285633564
0.00366017362102866,0.00163321837317199,0.00267589301802218
-0.00379667733795941,0.0048290123231709,0.00267589301802218
0.00366017362102866,-0.0111499540507793,-0.02502098120749
-0.00592720555141568,-0.00262783886864781,0.00800221413373947
0.00259490916505456,0.000567954499274492,0.0122632719576359
-0.00805773492902517,0.00269848271273077,-0.00158516434021294
0.00792123097926378,-0.0154110118746758,-0.00584622146561742
0.00366017362102866,0.0122858621180058,-0.0175641290843487
0.00366017362102866,-0.019672067835927,0.0154590662568808
-0.00166614807676524,0.00163321837317199,0.0239811800420284
-0.0101882629096508,0.00163321837317199,-0.0218251869082451
0.00898649543523788,0.0176121834665537,0.00161062914412469
0.00792123097926378,0.00695953983813524,0.00054536439711228
-0.00592720555141568,-0.0154110118746758,-0.0026504285633564
-0.00060088379541412,0.00376374716870487,0.00693695107474923
0.0111170243471861,0.0165469218045473,0.00906747858971357
0.000464380573248491,-0.00262783886864781,-0.0164988655596972
-0.00592720555141568,0.00376374716870487,-0.0047809574753046
0.00472543807700276,-0.00156257464550436,-0.0047809574753046
-0.0208409056067467,0.00269848271273077,0.0165243316441774
0.010051759891212,-0.0249983929097652,-0.00797675084322691
0.00472543807700276,0.00802480429410934,-0.00797675084322691
-0.0112535273656249,0.0197427123785019,0.00906747858971357
-0.00379667733795941,0.00802480429410934,-0.0133030731230974
0.0111170243471861,0.000567954499274492,0.0282422378659248
0.00366017362102866,-0.00901942513883114,-0.0111725432798266
-0.0101882629096508,0.00376374716870487,0.0154590662568808
0.000464380573248491,-0.00262783886864781,0.00054536439711228
0.000464380573248491,0.00376374716870487,-0.00158516434021294
-0.00486194109544158,-0.0100846895948052,-0.0111725432798266
0.00685596698895097,0.0144163919612765,0.0101327430456877
0.00366017362102866,0.00909006875008345,-0.00158516434021294
-0.00486194109544158,0.0101553332060575,-0.0047809574753046
-0.00592720555141568,-0.000497310247737914,0.0101327430456877
-0.00060088379541412,0.0048290123231709,-0.0122378077358007
-0.00805773492902517,0.0133511275053024,0.00267589301802218
0.00898649543523788,-0.00582363223657012,-0.00797675084322691
-0.0155145851895213,0.00695953983813524,-0.0026504285633564
-0.00273141241632402,-0.00475836778059602,0.030372766777873
-0.00592720555141568,-0.0175415389239788,-0.0101072788238525
0.0175086110830307,0.0165469218045473,0.0314380340278149
-0.00912299938499928,0.000567954499274492,-0.0282167717814445
0.00472543807700276,0.00695953983813524,0.0122632719576359
-0.00912299938499928,-0.0122152185067534,-0.0026504285633564
-0.00166614807676524,0.00163321837317199,-0.00904201529920101
-0.00060088379541412,-0.0143457474187017,0.0111980075016618
0.010051759891212,-0.000497310247737914,-0.00691148592159152
-0.0112535273656249,0.0133511275053024,0.0165243316441774
0.00685596698895097,-0.00795416068285704,-0.0133030731230974
0.0132475523278117,0.000567954499274492,-0.0026504285633564
-0.0101882629096508,0.0186774469912052,0.0122632719576359
0.0015296449419111,0.00269848271273077,0.00161062914412469
0.00792123097926378,-0.0111499540507793,-0.0196946579962969
0.0132475523278117,0.00802480429410934,-0.000519900000654161
-0.00273141241632402,-0.0132804829627275,-0.0026504285633564
0.0175086110830307,-0.000497310247737914,-0.000519900000654161
-0.0155145851895213,-0.0132804829627275,-0.00904201529920101
0.00898649543523788,-0.000497310247737914,-0.000519900000654161
0.000464380573248491,0.00163321837317199,0.00267589301802218
0.0015296449419111,0.0048290123231709,-0.0026504285633564
0.000464380573248491,0.005894276779145,-0.0037156930193305
0.0249654594808817,-0.00369310332462192,-0.0164988655596972
-0.00699247000738978,-0.000497310247737914,-0.0026504285633564
0.010051759891212,0.00163321837317199,0.0165243316441774
-0.00486194109544158,-0.0100846895948052,-0.0218251869082451
-0.00379667733795941,-0.00475836778059602,0.00054536439711228
-0.0101882629096508,0.00802480429410934,0.00800221413373947
0.00685596698895097,-0.00688889669254422,-0.0164988655596972
-0.0165798515081406,0.00163321837317199,0.0165243316441774
0.000464380573248491,-0.00262783886864781,0.01332853641361
-0.00805773492902517,0.0133511275053024,-0.00691148592159152
-0.00060088379541412,-0.00369310332462192,-0.0037156930193305
-0.00486194109544158,0.00376374716870487,0.00693695107474923
-0.00273141241632402,-0.00262783886864781,0.0143938018009067
0.00898649543523788,0.000567954499274492,-0.00691148592159152
0.000464380573248491,0.0176121834665537,0.0143938018009067
0.000464380573248491,-0.00475836778059602,0.0218506529927254
-0.00486194109544158,-0.00688889669254422,-0.0175641290843487
-0.00486194109544158,0.0101553332060575,0.0111980075016618
-0.00486194109544158,-0.00688889669254422,-0.0196946579962969
-0.00273141241632402,0.0048290123231709,0.00054536439711228
-0.00273141241632402,-0.0100846895948052,0.00480642216280103
0.000464380573248491,0.0176121834665537,-0.000519900000654161
0.00792123097926378,0.000567954499274492,0.00161062914412469
-0.00912299938499928,-0.0143457474187017,-0.0133030731230974
0.010051759891212,0.00695953983813524,0.0335685648024082
0.00579070253297687,0.0165469218045473,0.00693695107474923
0.00259490916505456,0.000567954499274492,-0.0196946579962969
-0.00166614807676524,0.00695953983813524,-0.00691148592159152
-0.00592720555141568,0.00269848271273077,-0.00158516434021294
-0.00379667733795941,0.00269848271273077,0.00693695107474923
0.0153780812397599,-0.0218025967478752,-0.00584622146561742
-0.00912299938499928,0.00695953983813524,-0.0111725432798266
-0.00592720555141568,-0.00582363223657012,0.00800221413373947
-0.0144493207335472,0.000567954499274492,-0.0122378077358007
0.000464380573248491,0.005894276779145,-0.0026504285633564
-0.00166614807676524,-0.00262783886864781,0.00800221413373947
0.000464380573248491,-0.0143457474187017,0.00054536439711228
0.000464380573248491,0.00376374716870487,-0.0122378077358007
-0.00273141241632402,-0.00582363223657012,-0.0101072788238525
0.016443345695734,-0.00156257464550436,0.00054536439711228
-0.0155145851895213,0.0122858621180058,-0.0026504285633564
0.00898649543523788,-0.00582363223657012,-0.00904201529920101
0.00579070253297687,0.0144163919612765,0.00906747858971357
0.000464380573248491,-0.0122152185067534,-0.0218251869082451
0.010051759891212,0.0048290123231709,-0.00691148592159152
-0.00805773492902517,0.00695953983813524,0.00587168661877513
0.0121822888031602,0.0048290123231709,-0.0111725432798266
0.00472543807700276,-0.0100846895948052,-0.00584622146561742
0.00898649543523788,0.0176121834665537,0.00267589301802218
-0.00060088379541412,0.0101553332060575,0.0165243316441774
0.010051759891212,0.00269848271273077,-0.00691148592159152
0.00792123097926378,0.0144163919612765,0.00587168661877513
-0.00912299938499928,-0.0100846895948052,-0.00158516434021294
-0.00592720555141568,0.0197427123785019,-0.0047809574753046
0.0143128167837858,-0.00795416068285704,-0.0101072788238525
-0.012318791821599,-0.0100846895948052,0.0101327430456877
-0.00379667733795941,0.00163321837317199,0.00374115747399628
0.00898649543523788,-0.000497310247737914,-0.0037156930193305
-0.00273141241632402,0.0048290123231709,0.00054536439711228
0.010051759891212,0.000567954499274492,0.00587168661877513
0.000464380573248491,0.00376374716870487,0.0261117089539766
-0.0155145851895213,-0.0132804829627275,-0.0207599233835936
0.00792123097926378,-0.00901942513883114,0.00374115747399628
0.000464380573248491,0.00163321837317199,0.00374115747399628
-0.00912299938499928,0.0048290123231709,0.00587168661877513
-0.0165798515081406,-0.00475836778059602,0.00587168661877513
0.00792123097926378,0.0133511275053024,0.01332853641361
-0.0155145851895213,-0.00795416068285704,0.00267589301802218
