gyro_x,gyro_y,gyro_z
-0.00940035283565521,0.02032770216465,0.0184987187385559
0.0140354633331299,-0.000977584742940962,-0.00600236188620329
0.0129701988771558,0.00434873765334487,0.0131723964586854
-0.00940035283565521,-0.00736917136237025,-0.00174130464438349
-0.0115308808162808,-0.00417337799444795,-0.00174130464438349
0.00444808462634683,0.0118055874481797,-0.00919815618544817
-0.00407403102144599,-0.0137607576325536,0.0142376618459821
-0.0051392950117588,-0.000977584742940962,-0.00919815618544817
-0.0104656163603067,0.00115294381976128,0.00571554619818926
0.0129701988771558,0.0064792656339705,-0.00600236188620329
-0.000878237595316023,-0.0105649642646313,-0.0134592140093446
-0.00194350187666714,-0.0180218145251274,-0.0102634187787771
-0.00407403102144599,-0.0116302287206054,-0.00600236188620329
-0.00300876633264124,0.00860979408025742,-0.00919815618544817
0.015100727789104,-0.0105649642646313,-0.00706762634217739
-0.0051392950117588,0.0075445300899446,-0.00706762634217739
0.000187026787898503,0.0139361182227731,0.0131723964586854
-0.013661409728229,0.0150013826787472,0.00571554619818926
0.000187026787898503,-0.0031081133056432,0.0142376618459821
0.00764387706294656,-0.00949969980865717,0.000389224122045562
0.00764387706294656,0.00434873765334487,0.00465028174221516
-0.00620455946773291,0.00434873765334487,-0.00280656898394227
-0.0051392950117588,0.0064792656339705,0.00571554619818926
0.00657861353829503,0.0064792656339705,-0.00174130464438349
-0.013661409728229,-0.00843443535268307,-0.00493709743022919
0.0161659922450781,8.76798949320801E-05,-0.00493709743022919
-0.00940035283565521,-0.0148260220885277,0.000389224122045562
0.00870914198458195,0.0075445300899446,0.00358501705341041
0.00657861353829503,8.76798949320801E-05,0.00358501705341041
-0.0211182590574026,0.0139361182227731,-0.0113286832347512
0.0140354633331299,-0.00523864245042205,0.0184987187385559
-0.0125961452722549,-0.00417337799444795,0.00678081065416336
0.0119049353525043,0.0160666462033987,0.00145448883995414
0.00444808462634683,-0.00949969980865717,-0.0187855344265699
-0.00726982392370701,0.0107403229922056,0.00997660309076309
0.00338281993754208,-0.0180218145251274,-0.0230465922504663
-0.00194350187666714,0.0075445300899446,0.00891133863478899
-0.017922468483448,-0.00523864245042205,-0.00919815618544817
0.00657861353829503,-0.00630390690639615,-0.00600236188620329
0.00551334908232093,0.0118055874481797,0.00465028174221516
-0.00726982392370701,-0.0169565510004759,-0.0198507998138666
0.0129701988771558,0.0160666462033987,0.0216945111751556
0.00977440644055605,-0.0126954931765795,-0.0102634187787771
-0.00194350187666714,0.00967505853623152,-0.00493709743022919
0.0108396708965302,-0.0201523434370756,0.00891133863478899
-0.0125961452722549,0.00541400210931897,0.00251975283026695
0.0172312557697296,0.00221820827573538,-0.0187855344265699
-0.0104656163603067,8.76798949320801E-05,0.0174334552139044
0.00444808462634683,-0.0158912856131792,-0.0209160633385181
-0.00940035283565521,0.00860979408025742,0.0238250400871038
0.00231755571439862,0.0107403229922056,0.00251975283026695
0.00444808462634683,-0.0222828723490238,0.00358501705341041
0.0108396708965302,-0.00417337799444795,-0.00387183343991637
0.00657861353829503,-0.0031081133056432,-0.00067604030482471
0.00657861353829503,-0.00843443535268307,-0.00174130464438349
-0.00620455946773291,0.0118055874481797,0.0238250400871038
0.00870914198458195,0.00434873765334487,0.0121071320027113
-0.00194350187666714,0.0118055874481797,-0.00174130464438349
-0.00300876633264124,0.0075445300899446,0.00891133863478899
-0.0104656163603067,0.0160666462033987,-0.00493709743022919
0.00977440644055605,8.76798949320801E-05,0.0238250400871038
-0.00833508837968111,0.00115294381976128,-0.00919815618544817
0.00657861353829503,8.76798949320801E-05,0.00145448883995414
0.00870914198458195,-0.00630390690639615,0.00465028174221516
-0.0104656163603067,-0.0169565510004759,0.0110418675467372
0.00355869415216148,0.00792280491441488,-0.0168512184172869
-0.0177465938031673,0.00792280491441488,0.0236288253217936
0.00888501573354006,0.0025964833330363,-0.00619857525452971
0.00675448775291443,-0.0155130112543702,0.00551933376118541
-0.00389815680682659,0.0175101850181818,0.00764986174181104
-0.00389815680682659,-0.00699089607223868,-0.00832910370081663
0.00355869415216148,0.0111185973510146,-0.0189817473292351
-0.0134855359792709,-0.00486036716029048,0.0193677674978971
-0.0198771227151155,-0.00379510293714702,-0.00300278211943805
0.00462395837530494,0.00898806843906641,-0.012590161524713
-0.00176762766204774,-0.00166457425802946,0.00978039018809795
0.000362901017069817,0.00472701247781515,0.0236288253217936
0.00568922283127904,-0.00699089607223868,-0.0285691265016794
0.0120808100327849,-0.000599309802055359,0.0236288253217936
-0.0124202715232968,0.0143143935129046,-0.0189817473292351
0.0110155455768108,0.00579227693378925,0.00445406837388873
-0.00709394970908761,0.0025964833330363,-0.00832910370081663
0.00781975127756596,-0.0101866889744997,-0.00939436815679073
-0.000702363380696625,-0.00486036716029048,-0.0115248970687389
-0.0124202715232968,0.00366174755617976,0.022563561797142
0.00355869415216148,0.000465954886749387,-0.0157859530299902
0.00462395837530494,-0.013382482342422,-0.0168512184172869
-0.018811859190464,-0.00486036716029048,0.015106713399291
0.00249342992901802,-0.00699089607223868,-0.00300278211943805
0.00995028018951416,0.00366174755617976,0.00445406837388873
-0.00602868525311351,0.00898806843906641,0.0129761835560203
0.00355869415216148,0.00898806843906641,0.00338880415074527
0.00249342992901802,-0.00166457425802946,-0.000872253382112831
-0.000702363380696625,0.00579227693378925,0.000193011044757441
0.0014281653566286,0.000465954886749387,0.0119109191000462
0.0014281653566286,0.00472701247781515,-0.0147206904366612
-0.00496342079713941,0.0025964833330363,-0.00939436815679073
-0.00389815680682659,0.00792280491441488,0.0236288253217936
0.00675448775291443,-0.00272983848117292,0.00445406837388873
-0.0156160648912191,0.00898806843906641,0.00125827570445836
-0.00709394970908761,0.0111185973510146,0.00551933376118541
0.0152766015380621,0.00153121876064688,0.00338880415074527
0.000362901017069817,0.0100533328950405,0.000193011044757441
0.0014281653566286,-0.0080561600625515,0.00978039018809795
-0.00922447815537453,-0.00699089607223868,0.000193011044757441
0.000362901017069817,0.00685754045844078,0.00125827570445836
-0.0124202715232968,-0.00166457425802946,0.000193011044757441
0.00995028018951416,0.0100533328950405,0.0161719787865877
-0.0220076497644186,0.000465954886749387,-0.0147206904366612
0.0174071304500103,0.0121838618069887,0.0129761835560203
0.00568922283127904,0.00153121876064688,-0.00300278211943805
-0.00922447815537453,0.0025964833330363,0.00445406837388873
-0.000702363380696625,0.00153121876064688,-0.00832910370081663
0.0014281653566286,0.00366174755617976,-0.0200470108538866
-0.00602868525311351,0.0100533328950405,0.00764986174181104
-0.00496342079713941,0.0153796579688787,-0.00406804634258151
0.00995028018951416,-0.0165782757103443,0.00658459821715951
0.000362901017069817,0.00153121876064688,0.00658459821715951
-0.00283289211802185,0.0228365063667297,0.0246940907090902
0.00462395837530494,0.000465954886749387,-0.0243080724030733
0.0120808100327849,-0.0176435392349958,0.00338880415074527
-0.00283289211802185,0.0121838618069887,-0.0104596326127648
0.00462395837530494,0.000465954886749387,-0.00619857525452971
0.00462395837530494,0.0100533328950405,0.00125827570445836
-0.00602868525311351,0.00898806843906641,-0.000872253382112831
-0.0113550070673227,0.0025964833330363,-0.00406804634258151
0.0131460726261139,0.000465954886749387,-0.00513331079855561
-0.0134855359792709,-0.00486036716029048,0.0140414489433169
-0.000702363380696625,0.00898806843906641,0.00232353969477117
-0.00496342079713941,0.0175101850181818,0.0236288253217936
-0.000702363380696625,0.00685754045844078,-0.00406804634258151
0.000362901017069817,-0.00699089607223868,0.00764986174181104
-0.00496342079713941,-0.013382482342422,0.000193011044757441
0.0195376612246037,0.0143143935129046,0.00658459821715951
-0.00602868525311351,0.0175101850181818,0.00445406837388873
0.014211337082088,-0.0165782757103443,-0.00619857525452971
0.00568922283127904,0.0121838618069887,0.0193677674978971
0.0131460726261139,-0.0112519534304738,-0.0168512184172869
-0.0177465938031673,-0.0080561600625515,-0.00513331079855561
0.0163418650627136,0.00685754045844078,0.000193011044757441
-0.000702363380696625,-0.00486036716029048,-0.0168512184172869
-0.00602868525311351,0.00153121876064688,0.0257593542337418
-0.00602868525311351,0.000465954886749387,-0.012590161524713
-0.0113550070673227,0.0025964833330363,0.00445406837388873
0.00462395837530494,-0.00486036716029048,-0.00193751766346395
0.014211337082088,-0.00379510293714702,0.0108456546440721
-0.000702363380696625,0.00366174755617976,0.00978039018809795
0.00249342992901802,-0.00699089607223868,-0.00300278211943805
-0.00283289211802185,0.00792280491441488,0.0161719787865877
-0.00496342079713941,0.0175101850181818,-0.00513331079855561
0.0120808100327849,-0.00166457425802946,0.00338880415074527
0.00462395837530494,-0.00166457425802946,-0.0104596326127648
-0.00496342079713941,0.00366174755617976,-0.00300278211943805
0.000362901017069817,-0.0091214245185256,-0.00726383971050382
-0.00283289211802185,0.00685754045844078,-0.0115248970687389
0.0174071304500103,0.00153121876064688,0.00338880415074527
-0.0134855359792709,0.0025964833330363,0.02788988314569
0.0110155455768108,-0.0112519534304738,-0.00726383971050382
-0.014550800435245,0.000465954886749387,-0.00513331079855561
0.00355869415216148,-0.000599309802055359,0.00764986174181104
-0.0102897426113486,-0.000599309802055359,-0.00193751766346395
-0.00496342079713941,0.0132491290569305,0.0108456546440721
0.014211337082088,0.0164449214935303,-0.0200470108538866
-0.000702363380696625,-0.0155130112543702,0.0257593542337418
-0.00283289211802185,-0.00699089607223868,-0.0147206904366612
-0.008159214630723,0.000465954886749387,0.0119109191000462
0.00355869415216148,-0.0080561600625515,-0.0147206904366612
-0.00389815680682659,-0.00699089607223868,0.0172372423112392
-0.0102897426113486,-0.00272983848117292,-0.012590161524713
-0.0166813302785158,0.0132491290569305,-0.000872253382112831
0.0110155455768108,-0.0112519534304738,0.00764986174181104
0.00995028018951416,0.00366174755617976,-0.0211122762411833
-0.008159214630723,0.00366174755617976,-0.00406804634258151
0.00888501573354006,0.00153121876064688,0.000193011044757441
-0.0134855359792709,-0.0112519534304738,-0.00300278211943805
-0.008159214630723,0.0185754485428333,-0.0147206904366612
-0.00176762766204774,-0.00272983848117292,0.00232353969477117
0.0014281653566286,-0.013382482342422,-0.00300278211943805
-0.00389815680682659,-0.00166457425802946,-0.00939436815679073
-0.000702363380696625,-0.00592563161626458,-0.0115248970687389
-0.00709394970908761,0.000465954886749387,0.0183025039732456
0.00568922283127904,0.00366174755617976,0.0129761835560203
-0.0113550070673227,-0.00592563161626458,-0.0104596326127648
0.00995028018951416,0.0111185973510146,-0.00513331079855561
-0.00922447815537453,-0.000599309802055359,-0.0104596326127648
0.0014281653566286,-0.00272983848117292,-0.00832910370081663
0.0174071304500103,-0.0144477467983961,0.000193011044757441
-0.018811859190464,0.00792280491441488,-0.00939436815679073
0.00462395837530494,0.0025964833330363,0.0108456546440721
-0.000702363380696625,-0.0101866889744997,-0.00300278211943805
0.00462395837530494,0.00366174755617976,-0.00832910370081663
0.00888501573354006,-0.00272983848117292,-0.00832910370081663
0.000362901017069817,0.00898806843906641,0.00658459821715951
0.00249342992901802,-0.00166457425802946,0.00658459821715951
0.0184723939746618,0.00366174755617976,0.0172372423112392
-0.00709394970908761,-0.00379510293714702,-0.032830186188221
0.00568922283127904,-0.0144477467983961,-0.0147206904366612
0.00249342992901802,0.0121838618069887,0.000193011044757441
0.00355869415216148,-0.0251003913581371,-0.00513331079855561
-0.0113550070673227,0.0121838618069887,0.00445406837388873
0.00675448775291443,-0.0112519534304738,0.00125827570445836
-0.00176762766204774,-0.0091214245185256,-0.0115248970687389
-0.00922447815537453,0.00898806843906641,-0.000872253382112831
-0.000702363380696625,-0.00272983848117292,-0.0285691265016794
0.0131460726261139,0.00472701247781515,0.0119109191000462
-0.0177465938031673,0.00685754045844078,-0.00193751766346395
-0.00283289211802185,0.00898806843906641,-0.00193751766346395
0.00675448775291443,-0.00272983848117292,0.00445406837388873
-0.0124202715232968,0.00792280491441488,-0.0221775434911251
-0.0156160648912191,-0.0091214245185256,0.0129761835560203
-0.00496342079713941,-0.00166457425802946,-0.000872253382112831
0.000362901017069817,-0.000599309802055359,0.015106713399291
0.00675448775291443,-0.000599309802055359,-0.00726383971050382
-0.00709394970908761,0.0111185973510146,-0.00406804634258151
0.00568922283127904,-0.00699089607223868,-0.0157859530299902
-0.00283289211802185,-0.00379510293714702,0.00338880415074527
-0.00602868525311351,-0.00379510293714702,0.00232353969477117
0.00249342992901802,0.00792280491441488,0.00338880415074527
0.00888501573354006,-0.00166457425802946,-0.00939436815679073
-0.0198771227151155,0.00472701247781515,0.0161719787865877
-0.00176762766204774,0.00153121876064688,-0.0189817473292351
0.0120808100327849,0.00579227693378925,0.00232353969477117
-0.0220076497644186,-0.013382482342422,0.00125827570445836
0.00888501573354006,-0.00379510293714702,-0.0189817473292351
0.00249342992901802,-0.00486036716029048,-0.000872253382112831
-0.0102897426113486,0.0217712428420782,0.00338880415074527
0.00568922283127904,-0.0091214245185256,0.00445406837388873
-0.000702363380696625,0.0121838618069887,-0.00619857525452971
-0.00283289211802185,0.00472701247781515,-0.00193751766346395
0.0014281653566286,0.0143143935129046,0.0332162082195282
0.00249342992901802,-0.0101866889744997,-0.00939436815679073
0.0152766015380621,-0.00272983848117292,-0.00406804634258151
-0.0177465938031673,0.00153121876064688,-0.00193751766346395
0.0131460726261139,0.00366174755617976,0.00871512573212385
-0.000702363380696625,-0.00379510293714702,0.00658459821715951
0.0110155455768108,0.00792280491441488,-0.00726383971050382
-0.00283289211802185,-0.00379510293714702,0.000193011044757441
-0.00496342079713941,0.0143143935129046,0.0129761835560203
0.00781975127756596,-0.0155130112543702,0.00551933376118541
-0.0113550070673227,0.0153796579688787,0.00338880415074527
0.000362901017069817,0.0121838618069887,-0.00406804634258151
0.0014281653566286,-0.0123172178864479,-0.0115248970687389
-0.00176762766204774,0.00472701247781515,0.015106713399291
0.014211337082088,-0.000599309802055359,-0.00513331079855561
0.00249342992901802,0.0025964833330363,-0.0136554259806871
0.00995028018951416,0.00792280491441488,0.00125827570445836
-0.0124202715232968,-0.0187088046222925,0.00125827570445836
0.00995028018951416,0.0132491290569305,0.00445406837388873
-0.008159214630723,-0.00379510293714702,0.00125827570445836
0.00781975127756596,-0.00699089607223868,-0.0157859530299902
-0.00176762766204774,0.00153121876064688,0.0204330328851938
-0.0124202715232968,0.00472701247781515,0.000193011044757441
0.000362901017069817,0.00579227693378925,-0.00939436815679073
-0.00602868525311351,0.0025964833330363,0.00871512573212385
-0.00602868525311351,-0.00272983848117292,-0.00300278211943805
-0.008159214630723,0.00472701247781515,0.000193011044757441
0.0120808100327849,-0.00272983848117292,0.00232353969477117
-0.00176762766204774,0.00792280491441488,-0.00619857525452971
0.00355869415216148,0.00366174755617976,0.00658459821715951
0.00888501573354006,-0.013382482342422,-0.0104596326127648
0.00568922283127904,0.00579227693378925,0.0108456546440721
-0.0124202715232968,0.01964071393013,0.0108456546440721
-0.00922447815537453,-0.0101866889744997,-0.00832910370081663
0.0216681901365519,0.00898806843906641,-0.00513331079855561
-0.00389815680682659,0.0100533328950405,0.0119109191000462
-0.0134855359792709,-0.00166457425802946,-0.032830186188221
0.00781975127756596,0.000465954886749387,0.00125827570445836
-0.00709394970908761,-0.0080561600625515,-0.00406804634258151
0.000362901017069817,0.00898806843906641,0.015106713399291
-0.000702363380696625,-0.0165782757103443,-0.00939436815679073
-0.00176762766204774,0.00579227693378925,-0.00939436815679073
-0.00283289211802185,0.00898806843906641,0.00125827570445836
-0.00283289211802185,-0.0091214245185256,0.00338880415074527
0.00781975127756596,0.00898806843906641,0.00551933376118541
-0.00602868525311351,-0.00592563161626458,-0.000872253382112831
0.0248639807105064,-0.0080561600625515,-0.0189817473292351
-0.008159214630723,-0.00699089607223868,-0.000872253382112831
0.00462395837530494,-0.0165782757103443,-0.00193751766346395
-0.00389815680682659,0.00685754045844078,-0.00406804634258151
-0.00602868525311351,0.0185754485428333,-0.0115248970687389
0.0120808100327849,-0.00699089607223868,-0.00513331079855561
-0.0134855359792709,0.0153796579688787,0.0172372423112392
0.00888501573354006,-0.0176435392349958,0.00125827570445836
0.00462395837530494,-0.013382482342422,-0.0168512184172869
-0.000702363380696625,0.00579227693378925,-0.00726383971050382
0.00675448775291443,0.00153121876064688,0.0183025039732456
-0.0102897426113486,0.0185754485428333,0.0172372423112392
-0.0166813302785158,0.00579227693378925,-0.000872253382112831
-0.00283289211802185,-0.00166457425802946,0.00338880415074527
0.00462395837530494,-0.0123172178864479,-0.0179164819419384
0.00568922283127904,0.00685754045844078,-0.0157859530299902
0.00355869415216148,0.0100533328950405,-0.00406804634258151
-0.000702363380696625,-0.0091214245185256,-0.00193751766346395
-0.00389815680682659,0.00898806843906641,0.00871512573212385
-0.00176762766204774,-0.0091214245185256,0.00338880415074527
0.000362901017069817,-0.0091214245185256,0.00232353969477117
0.00355869415216148,-0.000599309802055359,-0.012590161524713
0.00355869415216148,0.00153121876064688,0.00871512573212385
0.00249342992901802,-0.00379510293714702,0.0119109191000462
0.000362901017069817,-0.00166457425802946,-0.0243080724030733
-0.026268707588315,0.00792280491441488,0.0246940907090902
0.0237987171858549,0.0164449214935303,0.00978039018809795
-0.0198771227151155,-0.0101866889744997,-0.00726383971050382
-0.0113550070673227,0.00792280491441488,-0.00726383971050382
-0.00389815680682659,0.0164449214935303,-0.000872253382112831
0.00249342992901802,-0.0112519534304738,-0.0115248970687389
-0.00389815680682659,0.00472701247781515,0.0193677674978971
0.0174071304500103,-0.00486036716029048,0.0108456546440721
-0.0102897426113486,-0.00699089607223868,0.000193011044757441
0.000362901017069817,-0.00379510293714702,-0.000872253382112831
-0.00176762766204774,0.00366174755617976,0.00978039018809795
0.000362901017069817,0.0111185973510146,-0.0147206904366612
-0.00176762766204774,0.00898806843906641,0.0183025039732456
0.0195376612246037,-0.00379510293714702,-0.000872253382112831
-0.00496342079713941,0.0207059774547815,-0.000872253382112831
-0.000702363380696625,-0.0091214245185256,0.00978039018809795
0.00249342992901802,0.0292280931025743,-0.000872253382112831
0.0014281653566286,-0.0080561600625515,-0.00939436815679073
0.0014281653566286,-0.00166457425802946,0.00551933376118541
0.00355869415216148,-0.00166457425802946,-0.0136554259806871
-0.00709394970908761,-0.0112519534304738,0.015106713399291
-0.008159214630723,-0.000599309802055359,0.0204330328851938
0.00568922283127904,-0.00272983848117292,-0.00406804634258151
-0.00496342079713941,0.00792280491441488,-0.00939436815679073
0.00568922283127904,-0.000599309802055359,-0.00300278211943805
0.00462395837530494,0.00579227693378925,-0.00406804634258151
0.000362901017069817,-0.000599309802055359,-0.0157859530299902
0.00249342992901802,0.00685754045844078,-0.00300278211943805
-0.00709394970908761,0.00472701247781515,0.0108456546440721
0.00249342992901802,0.0121838618069887,0.0204330328851938
0.0014281653566286,-0.0187088046222925,-0.0157859530299902
-0.0102897426113486,0.0185754485428333,0.00764986174181104
0.00355869415216148,-0.0112519534304738,-0.0211122762411833
0.0131460726261139,-0.000599309802055359,-0.012590161524713
-0.00709394970908761,-0.0123172178864479,0.015106713399291
0.00249342992901802,0.00898806843906641,0.00551933376118541
-0.00709394970908761,0.0025964833330363,-0.0104596326127648
0.00675448775291443,-0.0112519534304738,-0.0179164819419384
-0.00389815680682659,-0.000599309802055359,0.000193011044757441
-0.0102897426113486,-0.00272983848117292,0.0140414489433169
-0.0113550070673227,-0.0080561600625515,0.00445406837388873
-0.00176762766204774,0.0025964833330363,-0.00939436815679073
0.0014281653566286,-0.00272983848117292,-0.00619857525452971
-0.00176762766204774,0.0025964833330363,0.0108456546440721
0.0014281653566286,-0.00699089607223868,-0.0147206904366612
0.00355869415216148,0.0025964833330363,0.00445406837388873
0.0014281653566286,0.00366174755617976,-0.00300278211943805
0.00568922283127904,0.00472701247781515,-0.00939436815679073
0.0152766015380621,-0.00486036716029048,-0.00619857525452971
0.0014281653566286,0.00685754045844078,-0.00939436815679073
-0.00602868525311351,0.0100533328950405,-0.00832910370081663
-0.0113550070673227,-0.0091214245185256,-0.0115248970687389
0.00995028018951416,0.000465954886749387,0.00125827570445836
-0.00176762766204774,-0.00699089607223868,0.0119109191000462
-0.018811859190464,-0.0123172178864479,0.00551933376118541
-0.00709394970908761,0.000465954886749387,0.015106713399291
0.00568922283127904,0.01964071393013,0.039607796818018
0.000362901017069817,-0.013382482342422,-0.0189817473292351
0.00781975127756596,-0.00592563161626458,0.015106713399291
-0.0113550070673227,0.00366174755617976,-0.00513331079855561
0.00888501573354006,-0.0176435392349958,-0.0136554259806871
0.0014281653566286,0.00685754045844078,0.0161719787865877
-0.0177465938031673,-0.0080561600625515,0.0140414489433169
-0.00709394970908761,0.00472701247781515,0.00658459821715951
0.00249342992901802,-0.00166457425802946,0.000193011044757441
0.00675448775291443,-0.00486036716029048,0.00445406837388873
0.00355869415216148,0.00153121876064688,-0.00619857525452971
-0.00176762766204774,-0.00699089607223868,0.0119109191000462
-0.00176762766204774,0.00685754045844078,0.00338880415074527
0.00568922283127904,-0.00272983848117292,-0.00300278211943805
-0.0166813302785158,0.0100533328950405,0.00871512573212385
0.0110155455768108,-0.0187088046222925,0.0129761835560203
-0.00283289211802185,0.0025964833330363,-0.00513331079855561
0.0110155455768108,-0.00272983848117292,-0.00513331079855561
-0.0156160648912191,-0.0091214245185256,0.00764986174181104
0.014211337082088,0.00898806843906641,-0.00832910370081663
-0.0102897426113486,0.00366174755617976,0.0183025039732456
-0.0134855359792709,-0.0165782757103443,-0.0115248970687389
0.00568922283127904,-0.00272983848117292,0.0108456546440721
-0.00176762766204774,-0.00699089607223868,-0.00726383971050382
-0.0113550070673227,0.00579227693378925,0.0140414489433169
0.0184723939746618,0.000465954886749387,0.00445406837388873
-0.0209423843771219,-0.00379510293714702,-0.00300278211943805
0.0237987171858549,0.0143143935129046,-0.0168512184172869
-0.0134855359792709,0.00579227693378925,0.00978039018809795
0.00781975127756596,-0.00699089607223868,-0.00726383971050382
-0.00602868525311351,0.0164449214935303,-0.00300278211943805
0.0120808100327849,-0.00166457425802946,0.0119109191000462
0.00249342992901802,-0.00166457425802946,-0.0243080724030733
0.00462395837530494,0.00366174755617976,0.00978039018809795
0.00781975127756596,-0.0091214245185256,0.000193011044757441
0.00249342992901802,0.00366174755617976,0.00445406837388873
0.0152766015380621,-0.00166457425802946,-0.00726383971050382
-0.0113550070673227,-0.00486036716029048,-0.0115248970687389
0.00888501573354006,-0.00592563161626458,0.0140414489433169
-0.00602868525311351,0.00685754045844078,-0.0104596326127648
0.00888501573354006,-0.013382482342422,-0.00406804634258151
0.0131460726261139,0.00792280491441488,0.0119109191000462
-0.00709394970908761,0.00153121876064688,-0.00939436815679073
0.00355869415216148,-0.00699089607223868,0.00125827570445836
0.00462395837530494,0.0025964833330363,-0.00406804634258151
-0.008159214630723,-0.00272983848117292,-0.0147206904366612
-0.00602868525311351,0.00792280491441488,-0.00726383971050382
0.00888501573354006,-0.00379510293714702,0.00445406837388873
-0.00496342079713941,0.00366174755617976,-0.00726383971050382
0.00462395837530494,0.000465954886749387,-0.0157859530299902
-0.00602868525311351,-0.0123172178864479,-0.00832910370081663
0.00355869415216148,0.0228365063667297,0.0108456546440721
-0.0113550070673227,0.00898806843906641,-0.00939436815679073
0.00355869415216148,-0.0208393335342407,0.00232353969477117
0.00995028018951416,0.0153796579688787,-0.00513331079855561
-0.000702363380696625,-0.00486036716029048,0.0353467389941216
-0.00496342079713941,-0.0240351259708405,-0.0168512184172869
0.00995028018951416,-0.00699089607223868,-0.0189817473292351
-0.008159214630723,0.00579227693378925,0.00125827570445836
0.0110155455768108,-0.000599309802055359,-0.00406804634258151
-0.00602868525311351,-0.00592563161626458,0.00871512573212385
-0.00496342079713941,-0.0101866889744997,-0.0157859530299902
-0.000702363380696625,-0.00486036716029048,0.00658459821715951
0.00249342992901802,0.0132491290569305,0.00658459821715951
0.00355869415216148,-0.0080561600625515,0.00551933376118541
0.000362901017069817,-0.000599309802055359,-0.00513331079855561
0.0110155455768108,-0.0144477467983961,0.0236288253217936
-0.0113550070673227,-0.0101866889744997,-0.0317649208009243
0.000362901017069817,0.00472701247781515,0.00978039018809795
-0.00389815680682659,0.00898806843906641,0.0172372423112392
0.00888501573354006,-0.00272983848117292,-0.0104596326127648
0.00462395837530494,-0.0101866889744997,-0.000872253382112831
-0.00389815680682659,0.00153121876064688,-0.0253733359277248
-0.000702363380696625,0.0111185973510146,0.0119109191000462
0.0131460726261139,0.0153796579688787,0.000193011044757441
-0.000702363380696625,-0.0112519534304738,-0.00406804634258151
-0.0102897426113486,-0.000599309802055359,-0.00300278211943805
0.014211337082088,0.00153121876064688,-0.0275038629770279
-0.0102897426113486,0.0121838618069887,0.00658459821715951
0.00781975127756596,0.00366174755617976,0.00125827570445836
-0.00602868525311351,0.00792280491441488,0.00871512573212385
-0.0166813302785158,0.000465954886749387,-0.0104596326127648
0.00781975127756596,0.00366174755617976,0.000193011044757441
-0.00389815680682659,0.000465954886749387,-0.00300278211943805
-0.00922447815537453,0.0100533328950405,-0.0115248970687389
-0.00389815680682659,0.0025964833330363,0.0161719787865877
-0.00602868525311351,0.00472701247781515,-0.0189817473292351
-0.00176762766204774,-0.0123172178864479,-0.0200470108538866
-0.0113550070673227,-0.0155130112543702,0.0193677674978971
0.00675448775291443,0.00792280491441488,-0.0200470108538866
-0.00176762766204774,-0.013382482342422,-0.00406804634258151
0.00995028018951416,0.000465954886749387,0.015106713399291
-0.0102897426113486,0.0100533328950405,-0.012590161524713
0.0110155455768108,-0.00699089607223868,0.0193677674978971
-0.00389815680682659,0.00153121876064688,-0.0104596326127648
0.0163418650627136,-0.00166457425802946,0.00764986174181104
-0.00922447815537453,0.00685754045844078,0.00658459821715951
-0.00176762766204774,-0.0091214245185256,-0.0157859530299902
-0.00496342079713941,0.0132491290569305,0.0161719787865877
0.000362901017069817,0.0121838618069887,0.0193677674978971
-0.00602868525311351,-0.00272983848117292,-0.00406804634258151
-0.000702363380696625,-0.00166457425802946,0.00232353969477117
0.00462395837530494,0.0025964833330363,0.00551933376118541
0.0206029266119003,-0.00699089607223868,-0.0243080724030733
-0.008159214630723,-0.00592563161626458,-0.00193751766346395
-0.0113550070673227,0.00579227693378925,0.0183025039732456
0.014211337082088,0.000465954886749387,-0.00939436815679073
-0.018811859190464,0.0025964833330363,0.00125827570445836
-0.00602868525311351,0.0164449214935303,0.00551933376118541
0.00355869415216148,0.00472701247781515,0.0119109191000462
0.00462395837530494,0.00579227693378925,-0.00939436815679073
0.00355869415216148,-0.00379510293714702,0.00764986174181104
-0.00496342079713941,0.0025964833330363,0.0140414489433169
0.0227334555238485,0.00472701247781515,-0.00513331079855561
-0.00176762766204774,0.00472701247781515,-0.00406804634258151
0.00355869415216148,-0.00379510293714702,-0.0136554259806871
-0.00602868525311351,0.01964071393013,0.0257593542337418
0.0014281653566286,0.00153121876064688,-0.00193751766346395
-0.00283289211802185,0.0100533328950405,-0.00726383971050382
0.00249342992901802,0.00366174755617976,-0.00939436815679073
-0.000702363380696625,-0.019774068146944,-0.00619857525452971
-0.0156160648912191,0.00898806843906641,0.0119109191000462
0.00995028018951416,-0.00486036716029048,-0.00406804634258151
-0.0102897426113486,-0.0208393335342407,0.0183025039732456
0.00355869415216148,0.0217712428420782,0.00871512573212385
-0.00709394970908761,-0.0091214245185256,0.00338880415074527
-0.00389815680682659,0.0025964833330363,-0.0104596326127648
0.0014281653566286,-0.0112519534304738,-0.0136554259806871
0.014211337082088,-0.00379510293714702,0.00445406837388873
-0.00496342079713941,0.00685754045844078,-0.00513331079855561
0.0014281653566286,-0.0229698624461889,0.00658459821715951
-0.00709394970908761,-0.000599309802055359,-0.00513331079855561
0.00888501573354006,0.00472701247781515,0.00658459821715951
-0.00602868525311351,0.0025964833330363,-0.0253733359277248
0.0110155455768108,-0.0091214245185256,0.00764986174181104
-0.0134855359792709,0.0111185973510146,0.0268246196210384
-0.0177465938031673,-0.00166457425802946,-0.0136554259806871
0.0110155455768108,-0.0091214245185256,0.0204330328851938
-0.00709394970908761,0.00472701247781515,-0.00406804634258151
0.00249342992901802,0.0132491290569305,-0.00300278211943805
-0.0113550070673227,-0.013382482342422,-0.00619857525452971
-0.00283289211802185,0.0100533328950405,-0.00513331079855561
0.00888501573354006,0.00579227693378925,-0.0157859530299902
-0.008159214630723,0.0025964833330363,-0.00832910370081663
0.00781975127756596,-0.00486036716029048,-0.000872253382112831
-0.0177465938031673,-0.0155130112543702,0.00978039018809795
-0.00283289211802185,0.0111185973510146,-0.0168512184172869
0.00888501573354006,0.00579227693378925,-0.00193751766346395
0.0014281653566286,-0.0155130112543702,-0.00406804634258151
-0.00283289211802185,0.00153121876064688,0.00445406837388873
0.00249342992901802,0.000465954886749387,-0.00406804634258151
-0.000702363380696625,-0.0165782757103443,-0.00406804634258151
0.00888501573354006,0.0175101850181818,0.00764986174181104
0.00249342992901802,-0.0101866889744997,-0.00513331079855561
-0.00602868525311351,0.0121838618069887,0.0236288253217936
0.0120808100327849,-0.00272983848117292,-0.00513331079855561
-0.0124202715232968,-0.00699089607223868,0.000193011044757441
-0.00602868525311351,0.00898806843906641,0.000193011044757441
0.00675448775291443,-0.00592563161626458,0.00551933376118541
-0.00709394970908761,-0.000599309802055359,0.00125827570445836
0.0131460726261139,-0.013382482342422,-0.00300278211943805
-0.000702363380696625,0.0121838618069887,-0.0189817473292351
0.000362901017069817,-0.0101866889744997,-0.00193751766346395
-0.00709394970908761,0.000465954886749387,0.000193011044757441
0.00355869415216148,0.00366174755617976,0.0161719787865877
-0.00496342079713941,0.00366174755617976,0.00232353969477117
0.00568922283127904,0.000465954886749387,-0.00832910370081663
-0.0166813302785158,-0.00592563161626458,-0.00726383971050382
-0.00176762766204774,0.00472701247781515,0.00658459821715951
0.0120808100327849,-0.000599309802055359,0.0119109191000462
-0.0124202715232968,-0.00166457425802946,-0.00619857525452971
-0.00602868525311351,-0.00166457425802946,-0.0147206904366612
0.00462395837530494,-0.013382482342422,0.0119109191000462
-0.00602868525311351,0.00685754045844078,-0.0168512184172869
0.00675448775291443,-0.00379510293714702,0.00551933376118541
0.0014281653566286,-0.00272983848117292,-0.00513331079855561
-0.00283289211802185,-0.0101866889744997,-0.000872253382112831
0.00888501573354006,-0.0091214245185256,-0.00406804634258151
0.0110155455768108,0.00792280491441488,-0.00939436815679073
-0.00602868525311351,-0.0080561600625515,0.0161719787865877
-0.00602868525311351,-0.00699089607223868,-0.00406804634258151
0.0131460726261139,-0.00699089607223868,-0.0104596326127648
-0.018811859190464,0.000465954886749387,0.00338880415074527
0.00781975127756596,-0.0155130112543702,0.000193011044757441
0.00249342992901802,0.00579227693378925,0.00551933376118541
0.00568922283127904,0.000465954886749387,-0.00726383971050382
-0.00283289211802185,-0.0080561600625515,0.0140414489433169
0.000362901017069817,-0.000599309802055359,0.00764986174181104
-0.00496342079713941,-0.00166457425802946,-0.012590161524713
0.00995028018951416,0.0025964833330363,-0.00300278211943805
0.0014281653566286,-0.00379510293714702,0.0108456546440721
0.0110155455768108,0.0121838618069887,-0.0147206904366612
0.000362901017069817,-0.00699089607223868,0.00978039018809795
0.00355869415216148,0.00153121876064688,0.00658459821715951
0.00568922283127904,0.01964071393013,-0.012590161524713
-0.014550800435245,0.00579227693378925,-0.00300278211943805
-0.000702363380696625,0.00366174755617976,-0.00513331079855561
0.00249342992901802,0.0132491290569305,-0.00939436815679073
-0.0134855359792709,-0.00699089607223868,0.00338880415074527
0.00675448775291443,0.00366174755617976,0.000193011044757441
0.000362901017069817,-0.00379510293714702,0.0119109191000462
-0.00496342079713941,0.0025964833330363,-0.0243080724030733
-0.000702363380696625,-0.00379510293714702,0.0183025039732456
-0.0156160648912191,-0.00379510293714702,-0.00939436815679073
0.00781975127756596,-0.000599309802055359,0.00978039018809795
-0.00176762766204774,0.00366174755617976,-0.0157859530299902
-0.000702363380696625,0.00898806843906641,0.00125827570445836
0.00781975127756596,-0.0165782757103443,-0.0168512184172869
-0.00922447815537453,0.0111185973510146,0.0268246196210384
0.00568922283127904,-0.00272983848117292,-0.0179164819419384
-0.014550800435245,0.00685754045844078,-0.00726383971050382
-0.00709394970908761,0.00685754045844078,0.0129761835560203
-0.00176762766204774,0.0025964833330363,0.000193011044757441
0.00675448775291443,-0.0112519534304738,-0.000872253382112831
0.0152766015380621,0.00792280491441488,0.00764986174181104
-0.00176762766204774,-0.00486036716029048,-0.00406804634258151
0.00568922283127904,0.0121838618069887,0.00658459821715951
-0.00176762766204774,-0.000599309802055359,-0.000872253382112831
0.00888501573354006,0.000465954886749387,-0.00619857525452971
-0.00709394970908761,-0.0208393335342407,0.0140414489433169
0.00995028018951416,-0.0080561600625515,-0.0168512184172869
-0.0166813302785158,0.00366174755617976,0.00658459821715951
-0.0102897426113486,0.0100533328950405,0.0119109191000462
0.000362901017069817,0.000465954886749387,0.000193011044757441
-0.00389815680682659,-0.00379510293714702,-0.0168512184172869
-0.00602868525311351,0.000465954886749387,0.015106713399291
0.00568922283127904,0.0025964833330363,-0.00193751766346395
0.00888501573354006,-0.00272983848117292,-0.00939436815679073
0.00675448775291443,0.0025964833330363,0.0204330328851938
0.00462395837530494,-0.00699089607223868,-0.00726383971050382
0.0110155455768108,-0.0165782757103443,0.00338880415074527
-0.00496342079713941,0.00472701247781515,0.00338880415074527
-0.000702363380696625,0.0121838618069887,0.0129761835560203
0.0014281653566286,0.0100533328950405,0.00658459821715951
0.00675448775291443,-0.00699089607223868,-0.0147206904366612
0.00568922283127904,0.00579227693378925,0.00125827570445836
-0.00496342079713941,0.00366174755617976,-0.00300278211943805
-0.00389815680682659,-0.00272983848117292,0.00125827570445836
0.00355869415216148,-0.00486036716029048,0.000193011044757441
0.0110155455768108,-0.0155130112543702,-0.00513331079855561
0.0110155455768108,0.01964071393013,-0.00300278211943805
-0.00283289211802185,-0.00699089607223868,0.0108456546440721
0.00249342992901802,0.0100533328950405,-0.000872253382112831
0.00355869415216148,-0.0240351259708405,0.0129761835560203
0.0014281653566286,0.00579227693378925,-0.0253733359277248
0.0110155455768108,-0.000599309802055359,-0.00939436815679073
0.0014281653566286,0.00685754045844078,-0.00832910370081663
-0.00176762766204774,-0.00592563161626458,0.000193011044757441
-0.00283289211802185,0.0025964833330363,-0.012590161524713
-0.00176762766204774,0.00685754045844078,0.00551933376118541
-0.0102897426113486,-0.0080561600625515,-0.00406804634258151
0.0110155455768108,0.01964071393013,-0.00406804634258151
0.00888501573354006,-0.0144477467983961,0.00871512573212385
0.000362901017069817,-0.00592563161626458,0.00232353969477117
-0.0102897426113486,-0.00486036716029048,-0.00300278211943805
-0.0113550070673227,0.0132491290569305,0.00232353969477117
0.0014281653566286,-0.0144477467983961,-0.00726383971050382
-0.000702363380696625,0.0025964833330363,-0.00513331079855561
0.0110155455768108,-0.00592563161626458,0.00232353969477117
-0.00496342079713941,0.0175101850181818,-0.00513331079855561
-0.0156160648912191,-0.00486036716029048,0.00232353969477117
-0.000702363380696625,-0.00486036716029048,0.00764986174181104
-0.00496342079713941,0.00579227693378925,-0.0104596326127648
0.00888501573354006,0.0207059774547815,0.0119109191000462
-0.00283289211802185,-0.0304267108440399,0.00658459821715951
0.00781975127756596,0.00472701247781515,0.00445406837388873
-0.000702363380696625,0.0132491290569305,0.0129761835560203
0.0184723939746618,-0.0155130112543702,-0.0189817473292351
-0.00922447815537453,0.01964071393013,0.0204330328851938
0.00462395837530494,0.00792280491441488,0.00658459821715951
-0.0156160648912191,-0.0112519534304738,0.00978039018809795
0.00462395837530494,0.0121838618069887,0.00338880415074527
0.0014281653566286,0.0175101850181818,-0.012590161524713
0.0014281653566286,-0.0187088046222925,0.0108456546440721
0.00888501573354006,-0.00379510293714702,0.00338880415074527
0.00995028018951416,-0.0080561600625515,0.00338880415074527
-0.00283289211802185,0.00472701247781515,0.00338880415074527
0.000362901017069817,0.00685754045844078,0.0161719787865877
-0.00389815680682659,-0.00272983848117292,0.00232353969477117
-0.00389815680682659,0.00579227693378925,-0.00300278211943805
0.00568922283127904,-0.013382482342422,-0.0275038629770279
0.0014281653566286,0.0100533328950405,0.0108456546440721
-0.00176762766204774,0.00898806843906641,0.00978039018809795
0.00781975127756596,0.00898806843906641,0.00978039018809795
-0.0113550070673227,0.00685754045844078,0.00232353969477117
0.0206029266119003,-0.0187088046222925,-0.00939436815679073
-0.014550800435245,0.00898806843906641,0.0129761835560203
-0.00283289211802185,0.00366174755617976,-0.00726383971050382
0.00355869415216148,0.0143143935129046,0.00871512573212385
0.0131460726261139,-0.0144477467983961,-0.0211122762411833
0.00462395837530494,0.0121838618069887,-0.0104596326127648
0.00888501573354006,0.00685754045844078,-0.0104596326127648
0.00781975127756596,0.00153121876064688,0.0204330328851938
-0.00602868525311351,0.000465954886749387,-0.00832910370081663
-0.00496342079713941,0.0025964833330363,-0.00939436815679073
0.00355869415216148,0.000465954886749387,0.00338880415074527
0.00249342992901802,0.0121838618069887,-0.00193751766346395
0.00355869415216148,-0.00166457425802946,-0.00300278211943805
0.000362901017069817,-0.00166457425802946,-0.00193751766346395
0.000362901017069817,0.0132491290569305,-0.0104596326127648
0.00781975127756596,-0.0240351259708405,0.00551933376118541
0.00995028018951416,0.0111185973510146,-0.0115248970687389
-0.00389815680682659,-0.00166457425802946,-0.00406804634258151
0.00462395837530494,0.0111185973510146,-0.012590161524713
-0.00709394970908761,-0.019774068146944,-0.0147206904366612
-0.00389815680682659,0.0025964833330363,0.0204330328851938
-0.00496342079713941,-0.000599309802055359,-0.00300278211943805
-0.00496342079713941,-0.00272983848117292,0.00551933376118541
-0.0166813302785158,0.0228365063667297,0.0193677674978971
0.000362901017069817,0.000465954886749387,-0.00619857525452971
0.0014281653566286,0.00685754045844078,0.00551933376118541
0.0014281653566286,0.00898806843906641,-0.00300278211943805
-0.0102897426113486,-0.00592563161626458,0.0204330328851938
0.0014281653566286,-0.0123172178864479,-0.000872253382112831
-0.00496342079713941,0.00792280491441488,-0.00406804634258151
0.0014281653566286,-0.0155130112543702,-0.00939436815679073
0.00568922283127904,-0.00272983848117292,0.00764986174181104
0.00355869415216148,0.00366174755617976,-0.0157859530299902
-0.00176762766204774,-0.0219045970588922,0.00338880415074527
-0.00283289211802185,0.0143143935129046,0.00658459821715951
-0.00709394970908761,-0.0187088046222925,0.00445406837388873
0.00462395837530494,0.00472701247781515,-0.00513331079855561
0.00249342992901802,0.00153121876064688,0.00338880415074527
0.000362901017069817,-0.00166457425802946,0.000193011044757441
0.00568922283127904,0.00153121876064688,0.0172372423112392
-0.000702363380696625,-0.00379510293714702,-0.00193751766346395
0.00355869415216148,-0.000599309802055359,-0.00300278211943805
-0.000702363380696625,-0.0101866889744997,0.000193011044757441
0.00675448775291443,0.00685754045844078,0.00764986174181104
-0.00283289211802185,-0.000599309802055359,0.00551933376118541
-0.00283289211802185,-0.00379510293714702,0.00125827570445836
0.00355869415216148,0.00366174755617976,-0.00193751766346395
-0.00176762766204774,-0.00699089607223868,0.00232353969477117
0.000362901017069817,0.0153796579688787,0.00445406837388873
-0.00496342079713941,-0.0080561600625515,0.0129761835560203
0.00568922283127904,0.00153121876064688,-0.012590161524713
-0.00283289211802185,-0.00486036716029048,0.00232353969477117
-0.0102897426113486,-0.0155130112543702,0.00232353969477117
0.0120808100327849,0.0132491290569305,0.00551933376118541
-0.0156160648912191,-0.00379510293714702,-0.0189817473292351
-0.0102897426113486,-0.00592563161626458,-0.00726383971050382
0.00675448775291443,0.00685754045844078,0.0172372423112392
0.00355869415216148,0.00366174755617976,-0.012590161524713
-0.014550800435245,0.00898806843906641,0.0257593542337418
0.0174071304500103,-0.0155130112543702,-0.00406804634258151
-0.00922447815537453,-0.0080561600625515,-0.0243080724030733
0.0014281653566286,0.0132491290569305,0.00445406837388873
0.00462395837530494,-0.00166457425802946,-0.00832910370081663
-0.00389815680682659,-0.0112519534304738,0.0321509428322315
-0.0156160648912191,-0.0091214245185256,-0.00726383971050382
0.00249342992901802,0.0164449214935303,0.00978039018809795
0.0110155455768108,0.00792280491441488,-0.000872253382112831
-0.0156160648912191,-0.00166457425802946,0.00125827570445836
0.00249342992901802,0.00685754045844078,0.000193011044757441
0.0014281653566286,0.0025964833330363,-0.000872253382112831
-0.00176762766204774,-0.00486036716029048,0.00658459821715951
0.00462395837530494,-0.00166457425802946,-0.00726383971050382
-0.00389815680682659,0.0164449214935303,0.000193011044757441
0.00781975127756596,0.00579227693378925,-0.00619857525452971
0.00249342992901802,0.00153121876064688,0.00125827570445836
-0.000702363380696625,-0.00486036716029048,-0.00406804634258151
0.00995028018951416,-0.00379510293714702,0.0140414489433169
-0.008159214630723,0.00685754045844078,-0.0189817473292351
-0.00283289211802185,-0.000599309802055359,0.0236288253217936
0.00995028018951416,0.000465954886749387,-0.0157859530299902
0.0120808100327849,0.00472701247781515,0.00232353969477117
-0.008159214630723,-0.00272983848117292,-0.00406804634258151
-0.00389815680682659,-0.0080561600625515,-0.0147206904366612
-0.014550800435245,-0.00166457425802946,-0.00513331079855561
0.00995028018951416,-0.00166457425802946,0.0268246196210384
0.000362901017069817,0.00472701247781515,0.022563561797142
0.00888501573354006,0.00153121876064688,-0.0189817473292351
-0.014550800435245,0.00366174755617976,0.0204330328851938
0.0174071304500103,-0.000599309802055359,-0.0136554259806871
-0.00709394970908761,-0.0080561600625515,-0.00939436815679073
-0.00602868525311351,0.00366174755617976,0.00658459821715951
0.00888501573354006,0.00366174755617976,0.00551933376118541
0.00568922283127904,0.00153121876064688,-0.0232428070157766
0.00355869415216148,-0.000599309802055359,0.000193011044757441
0.00888501573354006,-0.0112519534304738,0.00338880415074527
-0.008159214630723,0.00366174755617976,0.0140414489433169
-0.0113550070673227,-0.00272983848117292,-0.0179164819419384
0.00781975127756596,-0.00699089607223868,0.00445406837388873
-0.0209423843771219,0.00685754045844078,-0.00193751766346395
0.00995028018951416,-0.00272983848117292,0.00551933376118541
-0.0102897426113486,0.0207059774547815,-0.00406804634258151
0.014211337082088,0.00366174755617976,-0.00300278211943805
0.00995028018951416,0.0132491290569305,0.00551933376118541
-0.000702363380696625,-0.0080561600625515,0.00125827570445836
0.00462395837530494,0.00472701247781515,0.00978039018809795
-0.00602868525311351,-0.0080561600625515,-0.00513331079855561
0.00249342992901802,-0.0123172178864479,-0.0157859530299902
0.00995028018951416,0.0111185973510146,0.0193677674978971
-0.0113550070673227,-0.0112519534304738,-0.034960713237524
0.00249342992901802,-0.00379510293714702,0.00871512573212385
-0.0113550070673227,0.0143143935129046,-0.012590161524713
0.00249342992901802,-0.0101866889744997,0.0172372423112392
-0.00389815680682659,0.00472701247781515,-0.00406804634258151
0.00249342992901802,-0.0144477467983961,0.0108456546440721
0.00781975127756596,-0.00486036716029048,-0.0115248970687389
-0.0124202715232968,0.0175101850181818,-0.0136554259806871
-0.00709394970908761,-0.013382482342422,0.00125827570445836
-0.000702363380696625,0.0111185973510146,0.00871512573212385
-0.0102897426113486,0.00472701247781515,-0.00513331079855561
0.0110155455768108,-0.0208393335342407,-0.00193751766346395
0.00568922283127904,0.0260323006659746,0.0129761835560203
0.014211337082088,-0.00166457425802946,-0.00406804634258151
-0.00176762766204774,-0.0091214245185256,0.00338880415074527
-0.0166813302785158,-0.00592563161626458,-0.0115248970687389
0.0174071304500103,0.00153121876064688,-0.00300278211943805
-0.0124202715232968,-0.000599309802055359,0.0129761835560203
0.000362901017069817,-0.00592563161626458,0.00338880415074527
-0.00602868525311351,0.0143143935129046,0.00125827570445836
0.00995028018951416,-0.013382482342422,-0.00193751766346395
-0.00709394970908761,0.00685754045844078,0.0119109191000462
-0.000702363380696625,-0.0229698624461889,-0.00726383971050382
-0.00176762766204774,-0.000599309802055359,-0.00300278211943805
-0.00176762766204774,0.0228365063667297,0.00232353969477117
0.014211337082088,-0.00592563161626458,0.00445406837388873
-0.00922447815537453,-0.00379510293714702,0.00658459821715951
0.00462395837530494,0.0025964833330363,0.00445406837388873
0.00568922283127904,0.00579227693378925,-0.00939436815679073
-0.000702363380696625,-0.00592563161626458,0.00232353969477117
-0.00283289211802185,0.00898806843906641,-0.012590161524713
0.0014281653566286,0.0143143935129046,0.00125827570445836
0.00675448775291443,-0.000599309802055359,-0.0147206904366612
0.0110155455768108,0.00579227693378925,-0.00619857525452971
0.000362901017069817,0.00579227693378925,0.0108456546440721
-0.00176762766204774,0.00579227693378925,0.015106713399291
0.00781975127756596,0.0100533328950405,-0.0104596326127648
0.0014281653566286,0.00153121876064688,-0.000872253382112831
-0.00389815680682659,0.0164449214935303,0.0140414489433169
0.00781975127756596,-0.0101866889744997,0.00232353969477117
-0.00176762766204774,0.0175101850181818,-0.00406804634258151
-0.00709394970908761,0.00366174755617976,0.00658459821715951
-0.00602868525311351,-0.00592563161626458,-0.00406804634258151
-0.00389815680682659,0.0111185973510146,0.00658459821715951
0.0014281653566286,0.0164449214935303,0.00125827570445836
-0.00496342079713941,-0.00272983848117292,-0.0104596326127648
0.00568922283127904,0.0025964833330363,0.0119109191000462
0.00462395837530494,-0.0101866889744997,-0.0157859530299902
0.0014281653566286,-0.00166457425802946,0.0172372423112392
-0.00283289211802185,0.000465954886749387,-0.00939436815679073
0.00888501573354006,0.00579227693378925,0.00125827570445836
0.000362901017069817,0.000465954886749387,-0.00619857525452971
0.000362901017069817,-0.000599309802055359,0.00764986174181104
-0.00496342079713941,0.0025964833330363,0.00445406837388873
0.00781975127756596,-0.013382482342422,0.00338880415074527
-0.00602868525311351,0.00472701247781515,-0.0221775434911251
0.0014281653566286,0.00472701247781515,-0.000872253382112831
-0.0156160648912191,-0.00272983848117292,-0.00300278211943805
0.00249342992901802,0.00153121876064688,-0.00406804634258151
0.00675448775291443,-0.00486036716029048,-0.00513331079855561
-0.00709394970908761,0.00153121876064688,0.00338880415074527
-0.0113550070673227,0.00579227693378925,0.0140414489433169
-0.00389815680682659,0.0164449214935303,-0.00406804634258151
0.014211337082088,-0.00592563161626458,0.015106713399291
-0.00176762766204774,0.00153121876064688,-0.00726383971050382
0.00781975127756596,-0.00272983848117292,0.00445406837388873
0.00355869415216148,0.00685754045844078,-0.0168512184172869
-0.00283289211802185,-0.013382482342422,0.00338880415074527
0.0163418650627136,0.0164449214935303,-0.00726383971050382
-0.00176762766204774,-0.00699089607223868,-0.00939436815679073
0.0131460726261139,-0.00486036716029048,-0.000872253382112831
-0.014550800435245,0.00792280491441488,0.00978039018809795
0.00462395837530494,-0.00166457425802946,0.0119109191000462
0.00568922283127904,0.0111185973510146,-0.00406804634258151
-0.014550800435245,0.00472701247781515,-0.0221775434911251
0.00462395837530494,0.00153121876064688,-0.000872253382112831
-0.0166813302785158,-0.00592563161626458,0.015106713399291
-0.00922447815537453,0.00579227693378925,-0.0211122762411833
0.0152766015380621,-0.00379510293714702,-0.00513331079855561
-0.00176762766204774,-0.0144477467983961,0.00658459821715951
-0.00389815680682659,-0.000599309802055359,-0.00300278211943805
-0.00709394970908761,0.0025964833330363,-0.00619857525452971
0.000362901017069817,0.0132491290569305,0.0119109191000462
-0.000702363380696625,-0.0155130112543702,-0.00300278211943805
-0.00496342079713941,0.0164449214935303,0.0161719787865877
0.0131460726261139,-0.019774068146944,-0.012590161524713
0.00675448775291443,0.00685754045844078,-0.0104596326127648
-0.00176762766204774,-0.0155130112543702,0.00125827570445836
-0.00496342079713941,-0.000599309802055359,0.0140414489433169
-0.000702363380696625,-0.00166457425802946,0.00125827570445836
0.00781975127756596,-0.00699089607223868,-0.00513331079855561
-0.0124202715232968,0.00153121876064688,-0.00832910370081663
0.0120808100327849,0.00366174755617976,0.00445406837388873
0.0152766015380621,-0.00592563161626458,-0.00193751766346395
-0.0113550070673227,-0.00379510293714702,0.00445406837388873
0.0152766015380621,-0.00166457425802946,-0.0147206904366612
0.00249342992901802,0.0111185973510146,-0.00193751766346395
-0.008159214630723,-0.000599309802055359,0.00125827570445836
-0.0113550070673227,0.0185754485428333,0.0119109191000462
0.000362901017069817,0.00153121876064688,-0.0147206904366612
-0.0134855359792709,-0.0101866889744997,0.00445406837388873
-0.00283289211802185,0.0111185973510146,0.00658459821715951
-0.00389815680682659,0.00366174755617976,-0.00513331079855561
0.00462395837530494,-0.00592563161626458,-0.00406804634258151
-0.014550800435245,-0.000599309802055359,0.0246940907090902
0.014211337082088,0.00366174755617976,-0.00619857525452971
-0.00496342079713941,-0.00486036716029048,0.0129761835560203
-0.00922447815537453,0.0175101850181818,-0.012590161524713
0.0184723939746618,-0.00699089607223868,0.000193011044757441
-0.00389815680682659,0.0143143935129046,0.00232353969477117
0.0195376612246037,0.00685754045844078,-0.00406804634258151
-0.000702363380696625,-0.00379510293714702,-0.0115248970687389
0.000362901017069817,0.0121838618069887,0.0119109191000462
-0.008159214630723,-0.0144477467983961,0.00125827570445836
0.00355869415216148,-0.0261656548827887,0.00125827570445836
0.00995028018951416,-0.00166457425802946,-0.0147206904366612
-0.00709394970908761,-0.00166457425802946,0.000193011044757441
-0.00389815680682659,0.00685754045844078,0.00125827570445836
-0.00176762766204774,0.00153121876064688,0.000193011044757441
-0.00922447815537453,-0.0123172178864479,0.0321509428322315
-0.000702363380696625,0.00792280491441488,-0.00300278211943805
0.00781975127756596,0.00366174755617976,0.00764986174181104
-0.008159214630723,0.00792280491441488,0.000193011044757441
0.0120808100327849,0.00472701247781515,-0.00406804634258151
-0.00389815680682659,0.00366174755617976,-0.00193751766346395
0.00888501573354006,-0.0261656548827887,-0.00939436815679073
-0.00602868525311351,-0.00272983848117292,0.000193011044757441
-0.00709394970908761,-0.00486036716029048,0.0119109191000462
0.00675448775291443,0.0025964833330363,0.00764986174181104
0.00462395837530494,0.000465954886749387,-0.0275038629770279
-0.0134855359792709,-0.000599309802055359,0.0172372423112392
-0.00496342079713941,-0.00699089607223868,-0.0157859530299902
0.014211337082088,0.0025964833330363,0.000193011044757441
0.00462395837530494,-0.0101866889744997,-0.00300278211943805
0.0120808100327849,-0.00592563161626458,0.00338880415074527
-0.00496342079713941,0.0025964833330363,0.0214982964098454
-0.00389815680682659,-0.0251003913581371,-0.00726383971050382
-0.00389815680682659,0.00792280491441488,-0.00193751766346395
0.0120808100327849,0.0164449214935303,0.00125827570445836
-0.0156160648912191,0.00153121876064688,0.000193011044757441
0.0216681901365519,0.00366174755617976,-0.0147206904366612
-0.0241381786763668,0.00685754045844078,0.0172372423112392
0.0163418650627136,-0.0091214245185256,-0.00726383971050382
-0.0113550070673227,-0.0091214245185256,-0.0264385975897312
0.000362901017069817,0.0207059774547815,0.0161719787865877
-0.0134855359792709,-0.0314919762313366,0.00338880415074527
0.00888501573354006,-0.00486036716029048,-0.0232428070157766
-0.0134855359792709,0.0185754485428333,0.00125827570445836
0.00462395837530494,0.00685754045844078,-0.00300278211943805
-0.000702363380696625,-0.0080561600625515,-0.00513331079855561
0.00568922283127904,-0.0144477467983961,0.000193011044757441
-0.00389815680682659,-0.000599309802055359,-0.00939436815679073
0.00568922283127904,-0.00699089607223868,0.00658459821715951
0.000362901017069817,0.00366174755617976,0.00871512573212385
-0.00389815680682659,-0.0112519534304738,0.00658459821715951
0.0174071304500103,-0.00379510293714702,-0.0104596326127648
-0.008159214630723,0.0239017717540264,-0.00300278211943805
0.00675448775291443,-0.00379510293714702,0.00338880415074527
0.000362901017069817,-0.0112519534304738,-0.0179164819419384
-0.014550800435245,0.00153121876064688,0.000193011044757441
-0.008159214630723,0.00153121876064688,-0.0136554259806871
0.00781975127756596,0.0025964833330363,-0.0264385975897312
-0.00283289211802185,0.0111185973510146,0.039607796818018
0.000362901017069817,0.0111185973510146,-0.000872253382112831
0.00249342992901802,-0.0123172178864479,-0.00619857525452971
0.00995028018951416,-0.00166457425802946,0.000193011044757441
0.0014281653566286,0.00898806843906641,-0.000872253382112831
0.00675448775291443,-0.0123172178864479,-0.00193751766346395
0.0014281653566286,-0.0112519534304738,0.00445406837388873
0.00462395837530494,-0.00699089607223868,-0.012590161524713
-0.0209423843771219,0.0111185973510146,0.00445406837388873
0.0120808100327849,-0.0112519534304738,0.00658459821715951
-0.00496342079713941,0.00366174755617976,-0.00300278211943805
0.00249342992901802,0.0175101850181818,0.00551933376118541
0.00995028018951416,-0.00592563161626458,0.00125827570445836
-0.00283289211802185,-0.000599309802055359,0.015106713399291
-0.0177465938031673,0.0132491290569305,-0.00193751766346395
0.00462395837530494,0.0025964833330363,-0.00832910370081663
0.0014281653566286,-0.0112519534304738,0.00764986174181104
0.00781975127756596,-0.00699089607223868,-0.0104596326127648
-0.0156160648912191,0.0132491290569305,0.00445406837388873
0.014211337082088,0.00792280491441488,-0.0115248970687389
0.00355869415216148,0.00472701247781515,-0.0104596326127648
-0.00602868525311351,-0.00166457425802946,0.0108456546440721
0.00355869415216148,-0.00699089607223868,-0.00193751766346395
0.00888501573354006,0.000465954886749387,0.000193011044757441
0.0163418650627136,-0.013382482342422,-0.00300278211943805
-0.0113550070673227,-0.00699089607223868,0.0129761835560203
0.0014281653566286,-0.0101866889744997,0.00232353969477117
0.0014281653566286,0.00366174755617976,-0.00406804634258151
-0.00283289211802185,0.000465954886749387,0.00551933376118541
0.0120808100327849,0.0143143935129046,0.00125827570445836
-0.00602868525311351,-0.0080561600625515,-0.00300278211943805
0.00995028018951416,-0.00699089607223868,-0.012590161524713
-0.0102897426113486,0.00366174755617976,0.00978039018809795
0.0110155455768108,0.0100533328950405,0.0119109191000462
0.00781975127756596,0.00153121876064688,-0.0168512184172869
-0.00389815680682659,-0.000599309802055359,0.00125827570445836
0.00781975127756596,0.00685754045844078,-0.00193751766346395
-0.00496342079713941,0.00898806843906641,0.00445406837388873
0.0227334555238485,0.000465954886749387,-0.0179164819419384
-0.0156160648912191,0.000465954886749387,-0.000872253382112831
0.0120808100327849,0.0164449214935303,0.0183025039732456
-0.008159214630723,-0.0080561600625515,-0.0179164819419384
-0.008159214630723,0.0143143935129046,0.00764986174181104
0.00888501573354006,-0.0155130112543702,0.0108456546440721
0.00888501573354006,0.0143143935129046,0.00445406837388873
-0.00283289211802185,-0.0080561600625515,-0.00726383971050382
0.00249342992901802,0.0185754485428333,0.00658459821715951
-0.00176762766204774,-0.00699089607223868,0.0129761835560203
-0.008159214630723,0.0175101850181818,0.00871512573212385
0.0163418650627136,0.000465954886749387,-0.00726383971050382
0.00462395837530494,-0.00699089607223868,-0.0147206904366612
-0.000702363380696625,0.00898806843906641,0.00764986174181104
0.00249342992901802,-0.000599309802055359,0.00764986174181104
-0.00602868525311351,-0.00699089607223868,-0.0275038629770279
0.00462395837530494,0.0111185973510146,0.015106713399291
-0.00709394970908761,-0.0187088046222925,-0.00726383971050382
-0.00922447815537453,0.00792280491441488,0.0257593542337418
-0.0134855359792709,0.00792280491441488,-0.00513331079855561
0.0110155455768108,-0.00166457425802946,-0.0232428070157766
-0.008159214630723,0.0249670352786779,0.00658459821715951
-0.00176762766204774,0.0100533328950405,-0.0104596326127648
-0.00176762766204774,0.00792280491441488,0.00445406837388873
-0.00389815680682659,-0.00272983848117292,0.0129761835560203
0.00675448775291443,-0.0165782757103443,0.00125827570445836
0.00675448775291443,0.00366174755617976,-0.0136554259806871
-0.0113550070673227,-0.013382482342422,0.0193677674978971
0.00249342992901802,0.01964071393013,-0.0104596326127648
-0.00709394970908761,-0.0187088046222925,0.00551933376118541
0.00355869415216148,-0.00272983848117292,-0.012590161524713
-0.00389815680682659,0.00366174755617976,-0.000872253382112831
0.00355869415216148,-0.00166457425802946,-0.00619857525452971
-0.00176762766204774,-0.00166457425802946,0.0108456546440721
-0.008159214630723,-0.00592563161626458,-0.0147206904366612
0.0120808100327849,-0.00379510293714702,-0.0104596326127648
-0.0177465938031673,0.00472701247781515,0.022563561797142
0.014211337082088,-0.00272983848117292,-0.0115248970687389
-0.0102897426113486,-0.00379510293714702,0.00764986174181104
-0.00602868525311351,0.00472701247781515,0.0183025039732456
0.000362901017069817,0.000465954886749387,0.00338880415074527
0.00888501573354006,-0.0187088046222925,0.00978039018809795
0.00995028018951416,0.0207059774547815,-0.00193751766346395
-0.008159214630723,0.0025964833330363,0.0129761835560203
0.00568922283127904,-0.0101866889744997,-0.00832910370081663
0.00355869415216148,-0.00699089607223868,-0.00300278211943805
-0.00389815680682659,0.00685754045844078,-0.00619857525452971
0.00355869415216148,-0.00379510293714702,0.00232353969477117
-0.0102897426113486,0.00153121876064688,0.0129761835560203
0.00355869415216148,0.00898806843906641,-0.0104596326127648
0.00355869415216148,-0.0155130112543702,0.00551933376118541
-0.014550800435245,0.00366174755617976,-0.00619857525452971
0.000362901017069817,0.00472701247781515,0.00871512573212385
-0.00389815680682659,-0.0091214245185256,0.00871512573212385
0.0014281653566286,-0.00592563161626458,0.0289551485329866
-0.00922447815537453,-0.0112519534304738,-0.00300278211943805
-0.00176762766204774,-0.019774068146944,0.0140414489433169
0.0014281653566286,-0.0101866889744997,0.00978039018809795
-0.0166813302785158,0.00579227693378925,0.0129761835560203
0.00568922283127904,-0.00486036716029048,-0.00513331079855561
0.000362901017069817,0.0143143935129046,0.00445406837388873
-0.000702363380696625,-0.0208393335342407,-0.0179164819419384
0.00462395837530494,0.0153796579688787,-0.00513331079855561
-0.00389815680682659,-0.0144477467983961,0.00978039018809795
-0.00496342079713941,-0.0123172178864479,-0.0115248970687389
0.00249342992901802,0.0025964833330363,0.00978039018809795
-0.00496342079713941,0.0100533328950405,0.00978039018809795
-0.00176762766204774,0.0111185973510146,0.0172372423112392
0.00462395837530494,0.00472701247781515,-0.00619857525452971
-0.00709394970908761,0.000465954886749387,-0.0104596326127648
-0.000702363380696625,0.00472701247781515,0.0140414489433169
0.0110155455768108,0.00153121876064688,0.000193011044757441
-0.00602868525311351,-0.0219045970588922,-0.00513331079855561
-0.00389815680682659,0.00579227693378925,0.0108456546440721
0.014211337082088,0.0153796579688787,0.000193011044757441
0.00781975127756596,-0.000599309802055359,0.000193011044757441
-0.00496342079713941,-0.0165782757103443,-0.00513331079855561
-0.014550800435245,0.0111185973510146,0.00871512573212385
0.00355869415216148,-0.0144477467983961,-0.00619857525452971
0.00249342992901802,0.00579227693378925,-0.000872253382112831
-0.0124202715232968,-0.00486036716029048,-0.0200470108538866
-0.00389815680682659,0.0132491290569305,0.0129761835560203
-0.00922447815537453,0.0143143935129046,0.00445406837388873
0.00462395837530494,-0.00486036716029048,-0.00193751766346395
0.00675448775291443,-0.0187088046222925,-0.0221775434911251
-0.00922447815537453,0.00472701247781515,0.0119109191000462
0.00568922283127904,0.00472701247781515,0.00445406837388873
-0.0124202715232968,-0.0101866889744997,0.00445406837388873
0.00781975127756596,0.0111185973510146,0.00338880415074527
0.00462395837530494,-0.0101866889744997,-0.0136554259806871
-0.000702363380696625,0.00792280491441488,-0.0285691265016794
0.0174071304500103,0.00792280491441488,0.0246940907090902
0.000362901017069817,-0.0155130112543702,0.0129761835560203
0.00249342992901802,0.0153796579688787,0.00871512573212385
-0.00496342079713941,-0.00486036716029048,-0.0168512184172869
-0.00496342079713941,0.0217712428420782,0.0119109191000462
0.00995028018951416,-0.00166457425802946,0.00445406837388873
-0.0209423843771219,-0.00166457425802946,0.00658459821715951
0.00249342992901802,0.00153121876064688,0.0236288253217936
-0.00496342079713941,0.0207059774547815,-0.00193751766346395
-0.000702363380696625,-0.0091214245185256,0.00232353969477117
0.0014281653566286,-0.00699089607223868,-0.0157859530299902
0.00781975127756596,0.00792280491441488,0.00978039018809795
-0.00283289211802185,-0.0208393335342407,-0.00726383971050382
0.00675448775291443,0.00153121876064688,0.0129761835560203
0.0014281653566286,-0.00486036716029048,-0.0168512184172869
0.0014281653566286,0.0025964833330363,0.0129761835560203
-0.00602868525311351,-0.00166457425802946,-0.00193751766346395
-0.00709394970908761,-0.0080561600625515,0.00764986174181104
0.0174071304500103,-0.00379510293714702,0.00232353969477117
-0.0177465938031673,0.00153121876064688,-0.0115248970687389
-0.00496342079713941,-0.013382482342422,0.0161719787865877
0.0131460726261139,-0.00486036716029048,-0.00832910370081663
-0.00709394970908761,0.0025964833330363,0.00338880415074527
-0.0134855359792709,-0.00592563161626458,-0.00619857525452971
-0.00922447815537453,0.00685754045844078,-0.00300278211943805
0.0184723939746618,-0.0101866889744997,-0.000872253382112831
0.0014281653566286,0.00153121876064688,-0.00406804634258151
-0.00922447815537453,0.0175101850181818,-0.0136554259806871
0.000362901017069817,-0.00486036716029048,-0.00513331079855561
0.00568922283127904,0.0025964833330363,0.00658459821715951
0.00675448775291443,-0.0101866889744997,-0.012590161524713
0.00249342992901802,0.0100533328950405,-0.0136554259806871
-0.0124202715232968,-0.00379510293714702,0.015106713399291
-0.00283289211802185,-0.0080561600625515,-0.00939436815679073
0.0110155455768108,0.00579227693378925,0.0108456546440721
-0.00176762766204774,-0.0187088046222925,-0.0147206904366612
-0.00709394970908761,0.0143143935129046,0.0119109191000462
-0.000702363380696625,0.000465954886749387,0.00125827570445836
0.00888501573354006,-0.00272983848117292,0.00871512573212385
0.0014281653566286,-0.000599309802055359,-0.00406804634258151
-0.00496342079713941,-0.00699089607223868,-0.00406804634258151
0.00355869415216148,-0.00699089607223868,0.00232353969477117
0.0120808100327849,-0.00486036716029048,-0.0104596326127648
0.0131460726261139,0.00685754045844078,-0.0211122762411833
-0.0113550070673227,0.0100533328950405,0.022563561797142
-0.00283289211802185,-0.00166457425802946,0.00551933376118541
0.0152766015380621,-0.00379510293714702,-0.0115248970687389
-0.0209423843771219,0.0121838618069887,0.00658459821715951
0.00995028018951416,0.000465954886749387,0.00871512573212385
0.00995028018951416,-0.000599309802055359,0.00232353969477117
0.00249342992901802,-0.0144477467983961,0.000193011044757441
0.0131460726261139,0.0111185973510146,0.00551933376118541
-0.00602868525311351,-0.00166457425802946,-0.00619857525452971
-0.00283289211802185,0.0111185973510146,-0.00300278211943805
0.00781975127756596,0.0025964833330363,0.00658459821715951
0.00462395837530494,-0.0123172178864479,-0.0189817473292351
-0.0102897426113486,0.0249670352786779,0.00764986174181104
-0.00176762766204774,0.00898806843906641,0.00978039018809795
0.0014281653566286,0.0025964833330363,0.0257593542337418
-0.00709394970908761,-0.00486036716029048,-0.0157859530299902
-0.00389815680682659,0.00898806843906641,0.000193011044757441
0.00888501573354006,-0.00379510293714702,-0.00939436815679073
-0.014550800435245,0.0100533328950405,-0.00406804634258151
-0.00602868525311351,0.000465954886749387,0.00125827570445836
0.00568922283127904,-0.00272983848117292,-0.0253733359277248
-0.00283289211802185,0.0121838618069887,0.00978039018809795
0.00249342992901802,-0.00486036716029048,-0.00939436815679073
0.000362901017069817,0.01964071393013,0.00551933376118541
0.0131460726261139,0.00472701247781515,-0.0136554259806871
-0.00389815680682659,-0.00699089607223868,0.015106713399291
-0.00709394970908761,0.0185754485428333,0.00871512573212385
-0.00283289211802185,-0.0123172178864479,-0.00939436815679073
0.00355869415216148,0.01964071393013,0.0161719787865877
-0.00283289211802185,0.00153121876064688,-0.0147206904366612
-0.00922447815537453,0.00792280491441488,0.02788988314569
0.0248639807105064,-0.0080561600625515,-0.00300278211943805
-0.0209423843771219,0.0143143935129046,0.00232353969477117
0.00249342992901802,-0.00486036716029048,0.00551933376118541
0.0152766015380621,-0.0208393335342407,-0.00406804634258151
0.0014281653566286,0.0111185973510146,0.0172372423112392
-0.00922447815537453,-0.00379510293714702,0.00871512573212385
0.00249342992901802,-0.0155130112543702,0.00764986174181104
-0.0134855359792709,0.0270975641906261,0.00338880415074527
-0.000702363380696625,-0.0091214245185256,0.00551933376118541
0.000362901017069817,0.00472701247781515,-0.000872253382112831
-0.00176762766204774,0.00366174755617976,0.00125827570445836
0.0152766015380621,-0.00592563161626458,0.00232353969477117
-0.014550800435245,0.00472701247781515,-0.00832910370081663
0.00995028018951416,-0.0155130112543702,-0.00406804634258151
-0.00389815680682659,0.0111185973510146,0.0236288253217936
-0.0102897426113486,-0.00272983848117292,-0.0147206904366612
-0.008159214630723,0.00153121876064688,-0.0115248970687389
0.0014281653566286,-0.000599309802055359,-0.00300278211943805
-0.0113550070673227,-0.0080561600625515,-0.0115248970687389
0.00462395837530494,0.00366174755617976,0.00445406837388873
-0.014550800435245,0.0100533328950405,-0.00939436815679073
0.00675448775291443,0.00153121876064688,0.00658459821715951
0.0131460726261139,-0.00486036716029048,0.000193011044757441
-0.0134855359792709,0.0164449214935303,0.00338880415074527
-0.00496342079713941,-0.0165782757103443,0.00125827570445836
0.00888501573354006,0.00579227693378925,0.00445406837388873
-0.00176762766204774,-0.0101866889744997,-0.0211122762411833
-0.014550800435245,-0.00592563161626458,0.0193677674978971
-0.008159214630723,0.0111185973510146,-0.0179164819419384
0.014211337082088,0.00153121876064688,0.0129761835560203
-0.000702363380696625,0.0111185973510146,0.0204330328851938
0.00462395837530494,0.0153796579688787,-0.012590161524713
0.0014281653566286,-0.00592563161626458,0.00551933376118541
-0.00283289211802185,0.00579227693378925,-0.00513331079855561
0.00568922283127904,-0.00379510293714702,-0.0147206904366612
0.014211337082088,-0.0101866889744997,-0.000872253382112831
-0.0177465938031673,-0.0123172178864479,0.0119109191000462
-0.008159214630723,0.00366174755617976,-0.000872253382112831
0.000362901017069817,0.0164449214935303,-0.00726383971050382
0.00888501573354006,-0.0101866889744997,-0.00726383971050382
0.000362901017069817,0.00366174755617976,-0.00193751766346395
0.00568922283127904,-0.00379510293714702,0.00338880415074527
-0.0134855359792709,-0.00379510293714702,-0.00726383971050382
0.00462395837530494,0.00366174755617976,0.00125827570445836
0.00675448775291443,0.0100533328950405,0.0119109191000462
-0.00602868525311351,0.00472701247781515,-0.0136554259806871
0.0131460726261139,-0.00592563161626458,-0.00726383971050382
-0.0124202715232968,-0.00379510293714702,0.00551933376118541
0.00462395837530494,-0.019774068146944,-0.000872253382112831
-0.00389815680682659,0.00792280491441488,-0.000872253382112831
-0.000702363380696625,0.0025964833330363,-0.00619857525452971
-0.00496342079713941,0.00579227693378925,0.00445406837388873
0.00249342992901802,0.00898806843906641,-0.00726383971050382
-0.00602868525311351,-0.00379510293714702,0.00232353969477117
0.00995028018951416,-0.0144477467983961,-0.00939436815679073
0.000362901017069817,-0.00272983848117292,0.00978039018809795
-0.0177465938031673,-0.0091214245185256,0.015106713399291
-0.00709394970908761,-0.00699089607223868,-0.0147206904366612
-0.00496342079713941,0.0025964833330363,0.000193011044757441
0.00675448775291443,0.00472701247781515,0.00338880415074527
-0.0102897426113486,0.0100533328950405,-0.00726383971050382
-0.000702363380696625,-0.019774068146944,0.00445406837388873
0.00995028018951416,-0.000599309802055359,-0.00300278211943805
0.00462395837530494,0.00579227693378925,-0.000872253382112831
0.00462395837530494,0.0025964833330363,0.00978039018809795
0.0120808100327849,0.00579227693378925,0.00445406837388873
-0.0177465938031673,-0.000599309802055359,-0.00513331079855561
0.0152766015380621,-0.00272983848117292,0.0161719787865877
-0.0124202715232968,0.0164449214935303,-0.012590161524713
0.00781975127756596,-0.0165782757103443,0.00232353969477117
-0.0166813302785158,0.00685754045844078,-0.00193751766346395
0.0163418650627136,0.0025964833330363,0.0129761835560203
-0.0134855359792709,-0.00699089607223868,-0.00939436815679073
0.00249342992901802,0.0153796579688787,0.022563561797142
0.000362901017069817,-0.00166457425802946,-0.0179164819419384
0.00888501573354006,0.000465954886749387,0.00764986174181104
-0.00176762766204774,0.0153796579688787,0.0161719787865877
0.00995028018951416,-0.013382482342422,-0.00193751766346395
0.00675448775291443,0.0111185973510146,0.00232353969477117
-0.0102897426113486,-0.0112519534304738,0.00232353969477117
-0.000702363380696625,0.00472701247781515,-0.00513331079855561
-0.0124202715232968,0.000465954886749387,0.00125827570445836
0.0174071304500103,0.0025964833330363,0.00445406837388873
-0.00602868525311351,-0.00592563161626458,0.00338880415074527
-0.00389815680682659,0.0111185973510146,-0.00513331079855561
-0.00176762766204774,-0.013382482342422,0.015106713399291
-0.0113550070673227,0.0185754485428333,0.00125827570445836
0.000362901017069817,-0.0144477467983961,-0.00300278211943805
0.014211337082088,-0.000599309802055359,-0.0211122762411833
-0.008159214630723,0.0143143935129046,0.0108456546440721
-0.014550800435245,0.00579227693378925,-0.00513331079855561
-0.008159214630723,0.0025964833330363,0.015106713399291
0.00462395837530494,0.00153121876064688,-0.00939436815679073
-0.008159214630723,0.00898806843906641,0.0214982964098454
-0.00389815680682659,-0.0240351259708405,-0.00406804634258151
0.00888501573354006,-0.00486036716029048,-0.0157859530299902
-0.00709394970908761,-0.0080561600625515,0.0108456546440721
0.00781975127756596,-0.00166457425802946,-0.00939436815679073
0.00249342992901802,-0.00379510293714702,-0.00193751766346395
0.014211337082088,-0.0091214245185256,0.00658459821715951
-0.0156160648912191,0.0185754485428333,0.0204330328851938
-0.00176762766204774,0.000465954886749387,-0.00193751766346395
-0.0134855359792709,0.0281628295779228,0.0129761835560203
0.00995028018951416,-0.0389488264918327,-0.0189817473292351
0.0163418650627136,0.0228365063667297,0.00445406837388873
-0.0113550070673227,0.00366174755617976,-0.00726383971050382
-0.00602868525311351,0.0164449214935303,0.015106713399291
-0.00176762766204774,-0.0080561600625515,-0.0147206904366612
0.00781975127756596,-0.00592563161626458,-0.00939436815679073
-0.008159214630723,-0.00486036716029048,0.0108456546440721
0.0120808100327849,-0.00166457425802946,-0.00193751766346395
0.0120808100327849,-0.019774068146944,-0.0147206904366612
0.00355869415216148,0.0121838618069887,0.0172372423112392
0.00888501573354006,-0.0144477467983961,-0.0104596326127648
-0.00602868525311351,0.0121838618069887,-0.0168512184172869
-0.00496342079713941,-0.0080561600625515,0.00978039018809795
0.0152766015380621,-0.00379510293714702,-0.0179164819419384
0.0014281653566286,0.0111185973510146,0.00338880415074527
0.00462395837530494,-0.00592563161626458,-0.00406804634258151
-0.00176762766204774,0.00153121876064688,-0.00619857525452971
-0.00389815680682659,0.00685754045844078,0.0119109191000462
0.0131460726261139,-0.000599309802055359,-0.0104596326127648
0.00355869415216148,0.00153121876064688,-0.0157859530299902
-0.000702363380696625,0.0025964833330363,0.0183025039732456
0.00355869415216148,0.00153121876064688,0.00978039018809795
-0.00389815680682659,0.0025964833330363,0.00551933376118541
0.00568922283127904,0.0100533328950405,-0.00939436815679073
0.00355869415216148,0.0025964833330363,0.00764986174181104
-0.0124202715232968,-0.0101866889744997,-0.0189817473292351
0.00568922283127904,-0.0144477467983961,0.00978039018809795
-0.000702363380696625,-0.000599309802055359,0.00658459821715951
0.00675448775291443,0.0025964833330363,0.015106713399291
-0.0102897426113486,0.00792280491441488,-0.0189817473292351
-0.00496342079713941,-0.00272983848117292,0.0236288253217936
-0.00496342079713941,-0.000599309802055359,-0.0147206904366612
0.00249342992901802,0.0025964833330363,0.00658459821715951
-0.0124202715232968,0.00898806843906641,0.00232353969477117
0.00462395837530494,-0.00699089607223868,0.00125827570445836
-0.00176762766204774,-0.00272983848117292,-0.00300278211943805
0.00249342992901802,-0.00592563161626458,-0.0179164819419384
0.00888501573354006,-0.000599309802055359,-0.00832910370081663
-0.0177465938031673,0.000465954886749387,-0.00726383971050382
0.0131460726261139,0.00792280491441488,-0.00193751766346395
0.00249342992901802,0.0100533328950405,0.00551933376118541
0.0014281653566286,-0.0080561600625515,-0.0189817473292351
-0.00176762766204774,0.00366174755617976,0.00658459821715951
-0.00602868525311351,-0.00592563161626458,0.0119109191000462
-0.00496342079713941,-0.0229698624461889,0.00445406837388873
0.0110155455768108,0.00366174755617976,0.00445406837388873
-0.0102897426113486,0.000465954886749387,0.00978039018809795
-0.000702363380696625,-0.0155130112543702,0.000193011044757441
0.00568922283127904,-0.00272983848117292,0.00338880415074527
0.00568922283127904,0.0143143935129046,-0.00513331079855561
0.000362901017069817,0.00366174755617976,-0.0221775434911251
-0.00389815680682659,-0.00379510293714702,0.00978039018809795
0.0131460726261139,0.0111185973510146,0.00125827570445836
-0.0102897426113486,0.0153796579688787,0.0119109191000462
-0.000702363380696625,-0.0144477467983961,-0.00619857525452971
0.00888501573354006,-0.0144477467983961,0.00551933376118541
-0.008159214630723,-0.00272983848117292,-0.00619857525452971
0.00462395837530494,0.0164449214935303,0.00232353969477117
0.00355869415216148,-0.00592563161626458,-0.00513331079855561
-0.0134855359792709,0.000465954886749387,-0.00513331079855561
0.0174071304500103,-0.00486036716029048,0.00871512573212385
-0.00389815680682659,-0.00272983848117292,-0.000872253382112831
-0.0156160648912191,-0.00272983848117292,0.00658459821715951
0.0131460726261139,0.0025964833330363,-0.00619857525452971
-0.00496342079713941,-0.00486036716029048,-0.00619857525452971
0.00568922283127904,0.0153796579688787,-0.0104596326127648
0.00888501573354006,0.0143143935129046,0.00871512573212385
-0.00602868525311351,0.00792280491441488,-0.0211122762411833
-0.00922447815537453,-0.013382482342422,0.00764986174181104
0.000362901017069817,0.00792280491441488,-0.000872253382112831
0.00888501573354006,-0.0080561600625515,-0.00406804634258151
-0.0113550070673227,0.000465954886749387,0.00125827570445836
-0.000702363380696625,0.01964071393013,0.0193677674978971
-0.00176762766204774,0.0100533328950405,0.00338880415074527
-0.00283289211802185,0.000465954886749387,-0.00300278211943805
0.00995028018951416,-0.00699089607223868,0.00871512573212385
-0.00283289211802185,-0.0080561600625515,-0.0179164819419384
0.00249342992901802,0.00898806843906641,0.00871512573212385
0.0163418650627136,0.0143143935129046,-0.00406804634258151
-0.0134855359792709,0.00898806843906641,-0.00300278211943805
0.0120808100327849,-0.000599309802055359,-0.00300278211943805
-0.00602868525311351,-0.0091214245185256,-0.0243080724030733
-0.00283289211802185,0.0121838618069887,0.00658459821715951
0.0110155455768108,0.0025964833330363,0.00232353969477117
-0.008159214630723,-0.0187088046222925,0.000193011044757441
0.014211337082088,0.00472701247781515,0.00551933376118541
-0.000702363380696625,0.00472701247781515,0.00125827570445836
-0.00176762766204774,-0.00166457425802946,0.00871512573212385
0.00249342992901802,0.00472701247781515,-0.00193751766346395
0.0014281653566286,0.00792280491441488,0.00232353969477117
0.00781975127756596,-0.0080561600625515,-0.0147206904366612
-0.00283289211802185,0.00472701247781515,0.00551933376118541
-0.00176762766204774,-0.00592563161626458,0.00871512573212385
-0.00602868525311351,0.00153121876064688,0.00658459821715951
0.0014281653566286,-0.0091214245185256,-0.00513331079855561
0.0152766015380621,0.00579227693378925,-0.0147206904366612
-0.0166813302785158,0.00792280491441488,0.0193677674978971
0.00781975127756596,0.0025964833330363,0.00232353969477117
-0.000702363380696625,-0.0101866889744997,-0.00193751766346395
-0.00922447815537453,0.0121838618069887,-0.012590161524713
0.0014281653566286,0.0025964833330363,0.000193011044757441
-0.00496342079713941,0.0185754485428333,0.00445406837388873
-0.00176762766204774,-0.000599309802055359,-0.0147206904366612
0.0184723939746618,-0.00592563161626458,0.00125827570445836
-0.0134855359792709,0.00792280491441488,-0.000872253382112831
-0.00496342079713941,0.00472701247781515,-0.00193751766346395
0.00355869415216148,-0.00699089607223868,0.000193011044757441
0.00462395837530494,0.0153796579688787,0.00978039018809795
0.00888501573354006,-0.00699089607223868,0.00978039018809795
-0.0102897426113486,0.00898806843906641,0.00445406837388873
0.00675448775291443,-0.00699089607223868,0.0140414489433169
-0.00389815680682659,0.00472701247781515,-0.0136554259806871
0.0152766015380621,-0.0091214245185256,0.0129761835560203
-0.0102897426113486,0.00153121876064688,-0.00726383971050382
-0.00709394970908761,-0.00272983848117292,0.00658459821715951
0.000362901017069817,-0.0123172178864479,0.00338880415074527
-0.00709394970908761,0.00579227693378925,0.00978039018809795
0.0110155455768108,0.00366174755617976,0.00338880415074527
-0.00602868525311351,0.0111185973510146,0.00125827570445836
-0.00602868525311351,-0.0123172178864479,-0.0136554259806871
0.0206029266119003,0.00792280491441488,0.00978039018809795
-0.00922447815537453,-0.000599309802055359,-0.00513331079855561
-0.00389815680682659,-0.00166457425802946,0.0108456546440721
0.00249342992901802,0.01964071393013,0.0119109191000462
0.0174071304500103,-0.00699089607223868,0.00658459821715951
0.00568922283127904,0.0164449214935303,-0.00193751766346395
0.0120808100327849,-0.0123172178864479,-0.00726383971050382
-0.00496342079713941,-0.0155130112543702,0.00551933376118541
-0.00176762766204774,0.0121838618069887,-0.00832910370081663
-0.00496342079713941,-0.00379510293714702,0.0129761835560203
0.00781975127756596,-0.000599309802055359,0.00338880415074527
-0.00496342079713941,-0.00379510293714702,0.00125827570445836
-0.0156160648912191,0.00792280491441488,0.00232353969477117
-0.000702363380696625,0.00472701247781515,-0.000872253382112831
0.00568922283127904,-0.0101866889744997,-0.000872253382112831
0.0131460726261139,-0.0091214245185256,0.00338880415074527
-0.0220076497644186,0.0121838618069887,0.00445406837388873
0.00995028018951416,-0.00166457425802946,0.0129761835560203
0.00355869415216148,-0.00272983848117292,-0.0147206904366612
0.00249342992901802,-0.000599309802055359,0.00658459821715951
0.000362901017069817,-0.00592563161626458,-0.00832910370081663
-0.000702363380696625,0.00366174755617976,0.0289551485329866
-0.000702363380696625,0.0100533328950405,-0.00513331079855561
0.00675448775291443,-0.00379510293714702,0.0119109191000462
0.000362901017069817,0.00898806843906641,-0.00619857525452971
0.00568922283127904,-0.000599309802055359,-0.000872253382112831
-0.00709394970908761,-0.0080561600625515,0.00232353969477117
0.00568922283127904,0.01964071393013,0.0129761835560203
-0.00283289211802185,-0.00379510293714702,-0.0243080724030733
0.0014281653566286,-0.00699089607223868,-0.00513331079855561
0.000362901017069817,0.00366174755617976,0.00764986174181104
0.00568922283127904,-0.0144477467983961,0.00445406837388873
-0.0102897426113486,0.0143143935129046,-0.00939436815679073
0.00355869415216148,-0.0123172178864479,-0.00300278211943805
0.000362901017069817,0.000465954886749387,0.00658459821715951
-0.00709394970908761,-0.00379510293714702,-0.0104596326127648
0.00781975127756596,0.00472701247781515,0.0183025039732456
0.00568922283127904,0.000465954886749387,0.00125827570445836
-0.00283289211802185,-0.0219045970588922,-0.0168512184172869
0.00355869415216148,-0.00592563161626458,-0.0147206904366612
-0.00922447815537453,0.00898806843906641,0.00125827570445836
-0.008159214630723,-0.00272983848117292,0.00764986174181104
-0.000702363380696625,-0.00486036716029048,0.0140414489433169
0.00888501573354006,-0.00272983848117292,-0.0264385975897312
-0.0124202715232968,0.0207059774547815,-0.00726383971050382
0.00568922283127904,-0.0101866889744997,0.00125827570445836
0.00888501573354006,-0.0080561600625515,-0.0147206904366612
-0.0113550070673227,0.0111185973510146,0.0108456546440721
-0.000702363380696625,0.00153121876064688,0.015106713399291
-0.0124202715232968,-0.000599309802055359,0.0108456546440721
0.014211337082088,-0.00699089607223868,0.00338880415074527
-0.0166813302785158,0.0185754485428333,0.00232353969477117
-0.00176762766204774,-0.0155130112543702,0.00125827570445836
0.0131460726261139,0.00153121876064688,-0.00832910370081663
0.00995028018951416,0.00472701247781515,0.00338880415074527
-0.000702363380696625,-0.00486036716029048,0.00338880415074527
-0.000702363380696625,-0.00166457425802946,0.0214982964098454
0.00888501573354006,0.00153121876064688,0.0183025039732456
-0.00709394970908761,0.00366174755617976,-0.0147206904366612
0.00781975127756596,-0.00592563161626458,-0.0338954478502274
0.00995028018951416,-0.00166457425802946,-0.00726383971050382
-0.0102897426113486,0.00153121876064688,0.00978039018809795
0.000362901017069817,0.00153121876064688,-0.00939436815679073
0.00995028018951416,0.00472701247781515,0.0183025039732456
-0.00922447815537453,0.00153121876064688,-0.0136554259806871
0.0131460726261139,-0.00166457425802946,-0.00406804634258151
-0.008159214630723,0.0132491290569305,0.00978039018809795
0.00355869415216148,-0.0112519534304738,-0.012590161524713
0.0014281653566286,-0.0080561600625515,0.0119109191000462
-0.00389815680682659,-0.0112519534304738,0.00871512573212385
-0.00283289211802185,0.000465954886749387,-0.00939436815679073
-0.00283289211802185,-0.0101866889744997,-0.00513331079855561
-0.00176762766204774,-0.000599309802055359,-0.00832910370081663
-0.00709394970908761,0.00366174755617976,-0.00300278211943805
-0.00176762766204774,0.0121838618069887,-0.00939436815679073
-0.00709394970908761,0.000465954886749387,0.00445406837388873
0.00568922283127904,0.00366174755617976,-0.00832910370081663
0.00568922283127904,-0.013382482342422,-0.0189817473292351
-0.0134855359792709,-0.013382482342422,0.0172372423112392
0.00675448775291443,-0.0080561600625515,0.00125827570445836
-0.008159214630723,0.00898806843906641,0.00871512573212385
0.00355869415216148,0.00898806843906641,0.00551933376118541
-0.00389815680682659,-0.00272983848117292,-0.0179164819419384
-0.00709394970908761,-0.00272983848117292,0.00978039018809795
-0.00283289211802185,-0.0155130112543702,-0.0147206904366612
0.014211337082088,-0.00166457425802946,0.00764986174181104
-0.00389815680682659,0.000465954886749387,-0.0221775434911251
-0.0124202715232968,-0.00272983848117292,0.0183025039732456
0.0163418650627136,0.00366174755617976,-0.0147206904366612
-0.00922447815537453,0.0111185973510146,0.00232353969477117
-0.00496342079713941,-0.00379510293714702,-0.012590161524713
-0.00602868525311351,0.00472701247781515,-0.0157859530299902
-0.00496342079713941,-0.00166457425802946,0.000193011044757441
-0.00389815680682659,-0.00272983848117292,0.00658459821715951
0.00462395837530494,0.0025964833330363,-0.00832910370081663
0.00781975127756596,-0.00486036716029048,-0.0243080724030733
-0.00922447815537453,0.0025964833330363,0.0161719787865877
0.00995028018951416,0.000465954886749387,-0.00619857525452971
-0.0113550070673227,-0.000599309802055359,0.0119109191000462
-0.0102897426113486,-0.00699089607223868,0.0119109191000462
-0.0220076497644186,0.0100533328950405,-0.00832910370081663
0.00462395837530494,-0.000599309802055359,0.000193011044757441
0.00355869415216148,0.00792280491441488,0.00871512573212385
0.00781975127756596,-0.00166457425802946,-0.0168512184172869
0.00462395837530494,-0.0165782757103443,0.0108456546440721
-0.008159214630723,0.0207059774547815,0.00551933376118541
-0.00922447815537453,-0.0165782757103443,-0.00406804634258151
0.00995028018951416,0.00898806843906641,-0.00406804634258151
0.00675448775291443,0.00898806843906641,0.00338880415074527
0.0152766015380621,0.00472701247781515,-0.00513331079855561
-0.00922447815537453,-0.013382482342422,0.00551933376118541
-0.00709394970908761,0.00792280491441488,0.0108456546440721
0.00568922283127904,-0.00486036716029048,-0.034960713237524
0.00462395837530494,0.0100533328950405,0.0246940907090902
-0.00709394970908761,0.00685754045844078,0.00445406837388873
0.0014281653566286,-0.00379510293714702,-0.00406804634258151
-0.000702363380696625,0.0132491290569305,0.00551933376118541
0.0110155455768108,-0.0123172178864479,-0.00939436815679073
-0.00602868525311351,-0.00699089607223868,-0.0136554259806871
0.0120808100327849,-0.00592563161626458,0.0172372423112392
0.000362901017069817,-0.00166457425802946,-0.0243080724030733
0.00568922283127904,0.0143143935129046,0.00551933376118541
0.0110155455768108,-0.0080561600625515,-0.0211122762411833
-0.00496342079713941,0.0132491290569305,0.0129761835560203
-0.014550800435245,-0.00592563161626458,0.00445406837388873
0.00462395837530494,-0.0155130112543702,-0.0232428070157766
-0.00496342079713941,0.0132491290569305,0.0289551485329866
-0.00922447815537453,-0.00486036716029048,-0.00939436815679073
0.0152766015380621,-0.000599309802055359,-0.00619857525452971
-0.0177465938031673,0.00898806843906641,-0.0189817473292351
0.0216681901365519,0.00472701247781515,0.0193677674978971
-0.0134855359792709,-0.00379510293714702,-0.00406804634258151
0.00675448775291443,0.00898806843906641,-0.0221775434911251
0.0195376612246037,-0.00166457425802946,-0.00619857525452971
-0.00709394970908761,-0.0155130112543702,-0.00300278211943805
-0.000702363380696625,0.0132491290569305,0.00445406837388873
-0.0102897426113486,0.00472701247781515,0.00871512573212385
-0.000702363380696625,0.00472701247781515,-0.000872253382112831
0.00568922283127904,-0.0176435392349958,-0.0104596326127648
0.00995028018951416,0.000465954886749387,0.00232353969477117
-0.000702363380696625,-0.00592563161626458,-0.012590161524713
-0.000702363380696625,-0.00592563161626458,0.00764986174181104
-0.0209423843771219,0.0185754485428333,-0.0136554259806871
0.0163418650627136,-0.00486036716029048,0.0183025039732456
0.00675448775291443,-0.00592563161626458,0.00764986174181104
-0.00709394970908761,-0.00699089607223868,-0.0104596326127648
0.00355869415216148,0.00579227693378925,0.0204330328851938
-0.0156160648912191,0.0143143935129046,0.0129761835560203
0.0174071304500103,-0.00699089607223868,-0.0179164819419384
-0.00709394970908761,-0.0144477467983961,0.00232353969477117
0.00781975127756596,-0.00166457425802946,0.00125827570445836
-0.00922447815537453,-0.00592563161626458,-0.0221775434911251
-0.000702363380696625,-0.013382482342422,-0.00193751766346395
0.00249342992901802,-0.000599309802055359,-0.00513331079855561
0.000362901017069817,0.00153121876064688,0.00232353969477117
-0.00602868525311351,0.0025964833330363,0.00125827570445836
0.00249342992901802,0.000465954886749387,0.00338880415074527
0.00781975127756596,0.00153121876064688,-0.00726383971050382
0.00462395837530494,-0.00379510293714702,-0.012590161524713
-0.00602868525311351,0.00472701247781515,0.0161719787865877
0.0014281653566286,-0.00699089607223868,-0.00832910370081663
0.00355869415216148,0.0025964833330363,0.00445406837388873
0.00249342992901802,-0.0123172178864479,-0.00406804634258151
-0.00176762766204774,0.0100533328950405,-0.00619857525452971
-0.00176762766204774,0.0100533328950405,0.0172372423112392
0.00568922283127904,0.00153121876064688,-0.012590161524713
-0.00176762766204774,0.00898806843906641,0.00871512573212385
0.00568922283127904,0.00792280491441488,-0.00406804634258151
-0.00602868525311351,0.00153121876064688,0.00658459821715951
0.0014281653566286,0.00472701247781515,-0.0115248970687389
0.0014281653566286,0.0185754485428333,0.0214982964098454
0.00355869415216148,-0.0091214245185256,0.0108456546440721
0.00568922283127904,0.0025964833330363,0.0140414489433169
0.00355869415216148,0.0111185973510146,-0.00619857525452971
-0.0177465938031673,0.0025964833330363,0.0129761835560203
0.0014281653566286,-0.0123172178864479,-0.000872253382112831
-0.000702363380696625,0.00153121876064688,-0.0221775434911251
0.00355869415216148,0.00153121876064688,0.00658459821715951
-0.00389815680682659,-0.0080561600625515,0.00232353969477117
-0.00283289211802185,-0.0187088046222925,0.0183025039732456
0.00249342992901802,0.00579227693378925,-0.00726383971050382
0.0110155455768108,-0.000599309802055359,-0.00619857525452971
0.0131460726261139,-0.013382482342422,-0.00832910370081663
-0.0113550070673227,0.000465954886749387,0.00764986174181104
0.00249342992901802,0.0025964833330363,0.00978039018809795
-0.000702363380696625,-0.0112519534304738,-0.00193751766346395
0.0152766015380621,0.00472701247781515,-0.0189817473292351
0.00675448775291443,0.000465954886749387,0.00871512573212385
0.000362901017069817,-0.0091214245185256,-0.00513331079855561
0.000362901017069817,-0.00592563161626458,-0.00193751766346395
-0.00922447815537453,0.000465954886749387,-0.00832910370081663
-0.0124202715232968,0.0143143935129046,0.015106713399291
-0.00283289211802185,-0.00486036716029048,-0.00513331079855561
0.000362901017069817,0.000465954886749387,0.0119109191000462
-0.008159214630723,-0.0165782757103443,0.0183025039732456
0.00249342992901802,0.00579227693378925,-0.012590161524713
0.0014281653566286,-0.00699089607223868,-0.000872253382112831
-0.008159214630723,-0.00379510293714702,0.0119109191000462
0.0110155455768108,-0.00272983848117292,-0.00832910370081663
0.00781975127756596,0.0143143935129046,-0.000872253382112831
-0.0134855359792709,-0.013382482342422,-0.0211122762411833
0.00355869415216148,0.00153121876064688,0.0140414489433169
-0.008159214630723,0.0132491290569305,-0.00726383971050382
0.00568922283127904,-0.00379510293714702,-0.0179164819419384
-0.00283289211802185,0.000465954886749387,0.00978039018809795
0.00675448775291443,-0.000599309802055359,0.015106713399291
0.00249342992901802,0.00898806843906641,-0.00726383971050382
0.0110155455768108,0.000465954886749387,-0.0147206904366612
0.0014281653566286,-0.00166457425802946,0.00551933376118541
0.00355869415216148,0.0132491290569305,0.00338880415074527
-0.0124202715232968,-0.0176435392349958,0.0129761835560203
0.00249342992901802,0.00579227693378925,0.00551933376118541
-0.00176762766204774,-0.00379510293714702,-0.0381565056741238
0.0237987171858549,-0.0091214245185256,0.0193677674978971
-0.0166813302785158,0.000465954886749387,0.00445406837388873
0.00781975127756596,-0.0112519534304738,-0.0285691265016794
0.00888501573354006,0.0175101850181818,0.0236288253217936
0.0131460726261139,-0.0091214245185256,-0.0115248970687389
0.000362901017069817,0.000465954886749387,0.000193011044757441
-0.0124202715232968,-0.00272983848117292,0.00551933376118541
0.00355869415216148,-0.00486036716029048,0.0161719787865877
0.0131460726261139,0.0121838618069887,-0.0104596326127648
0.000362901017069817,-0.00166457425802946,-0.00193751766346395
-0.00283289211802185,-0.00272983848117292,0.022563561797142
0.00355869415216148,0.0228365063667297,-0.0104596326127648
-0.00922447815537453,-0.0187088046222925,-0.0168512184172869
0.0174071304500103,0.00366174755617976,0.00125827570445836
-0.00602868525311351,-0.00379510293714702,-0.00406804634258151
0.0120808100327849,0.0025964833330363,-0.00619857525452971
-0.00496342079713941,0.00685754045844078,0.00445406837388873
-0.0113550070673227,0.00792280491441488,0.00445406837388873
0.00568922283127904,0.00472701247781515,-0.000872253382112831
0.000362901017069817,-0.0080561600625515,-0.0115248970687389
0.0120808100327849,-0.0155130112543702,0.00232353969477117
-0.0102897426113486,0.0239017717540264,0.00232353969477117
-0.0220076497644186,0.0153796579688787,0.0364120043814182
-0.00176762766204774,0.00472701247781515,-0.0136554259806871
0.0152766015380621,-0.0091214245185256,-0.0136554259806871
-0.00709394970908761,0.0025964833330363,0.0108456546440721
-0.00602868525311351,-0.0112519534304738,0.00338880415074527
-0.008159214630723,0.00472701247781515,0.00871512573212385
0.0014281653566286,0.00472701247781515,0.00338880415074527
0.0014281653566286,0.0153796579688787,-0.0104596326127648
-0.008159214630723,-0.013382482342422,-0.0104596326127648
0.00888501573354006,0.0164449214935303,0.00871512573212385
-0.00176762766204774,-0.0123172178864479,0.0129761835560203
0.00781975127756596,0.00579227693378925,-0.0115248970687389
-0.00602868525311351,0.00685754045844078,0.00764986174181104
-0.00922447815537453,0.000465954886749387,0.000193011044757441
0.00249342992901802,-0.00592563161626458,-0.00193751766346395
-0.00922447815537453,-0.00592563161626458,0.0193677674978971
0.00568922283127904,0.00472701247781515,0.00125827570445836
0.0184723939746618,0.00898806843906641,0.0108456546440721
-0.00283289211802185,0.000465954886749387,-0.00193751766346395
-0.0102897426113486,0.0121838618069887,0.00445406837388873
0.0120808100327849,-0.0080561600625515,-0.00619857525452971
-0.008159214630723,0.000465954886749387,-0.00832910370081663
0.00675448775291443,0.00472701247781515,0.0183025039732456
-0.008159214630723,-0.00592563161626458,0.00658459821715951
0.0014281653566286,0.00579227693378925,-0.0243080724030733
-0.000702363380696625,0.00685754045844078,-0.00619857525452971
-0.000702363380696625,-0.00699089607223868,0.00871512573212385
0.00568922283127904,0.00472701247781515,-0.00406804634258151
0.000362901017069817,0.000465954886749387,-0.0136554259806871
-0.00389815680682659,-0.00592563161626458,0.0119109191000462
0.000362901017069817,-0.00379510293714702,0.00125827570445836
0.00995028018951416,-0.0112519534304738,-0.00193751766346395
0.00355869415216148,0.00685754045844078,-0.0200470108538866
0.00675448775291443,-0.0091214245185256,-0.00193751766346395
-0.00283289211802185,0.00153121876064688,0.00125827570445836
0.00675448775291443,0.00579227693378925,0.0204330328851938
0.00355869415216148,-0.00166457425802946,-0.0115248970687389
-0.00176762766204774,-0.00699089607223868,0.00232353969477117
-0.000702363380696625,0.0132491290569305,0.000193011044757441
-0.00496342079713941,0.00472701247781515,0.00445406837388873
0.00355869415216148,-0.00486036716029048,-0.00406804634258151
-0.00922447815537453,0.000465954886749387,0.02788988314569
0.00462395837530494,-0.00699089607223868,-0.000872253382112831
-0.0134855359792709,-0.000599309802055359,-0.0306996554136276
0.00781975127756596,0.0164449214935303,0.0257593542337418
-0.0156160648912191,-0.0155130112543702,-0.00300278211943805
0.0110155455768108,0.0121838618069887,-0.00726383971050382
-0.0102897426113486,0.00472701247781515,0.00978039018809795
-0.0102897426113486,0.00685754045844078,0.00764986174181104
0.0110155455768108,-0.0101866889744997,0.0108456546440721
0.0014281653566286,0.0025964833330363,-0.012590161524713
-0.0124202715232968,-0.00272983848117292,-0.00832910370081663
0.0174071304500103,0.00153121876064688,-0.00406804634258151
-0.00496342079713941,0.0164449214935303,0.00125827570445836
-0.00176762766204774,-0.0144477467983961,-0.00193751766346395
-0.008159214630723,0.0228365063667297,0.00445406837388873
0.00995028018951416,-0.000599309802055359,-0.00619857525452971
-0.00496342079713941,-0.0144477467983961,-0.00513331079855561
-0.0166813302785158,-0.000599309802055359,-0.000872253382112831
-0.00496342079713941,0.00472701247781515,0.00978039018809795
0.00675448775291443,-0.0187088046222925,-0.0147206904366612
-0.00602868525311351,0.0111185973510146,0.0108456546440721
0.00249342992901802,-0.0144477467983961,-0.00619857525452971
0.00249342992901802,0.0025964833330363,-0.0179164819419384
0.000362901017069817,-0.00272983848117292,0.00551933376118541
-0.0166813302785158,-0.0091214245185256,-0.00619857525452971
0.00462395837530494,0.0132491290569305,0.00764986174181104
-0.000702363380696625,-0.0091214245185256,0.00871512573212385
-0.0134855359792709,0.0132491290569305,0.000193011044757441
0.0110155455768108,-0.0080561600625515,-0.0200470108538866
-0.018811859190464,0.00579227693378925,0.00338880415074527
0.000362901017069817,0.00366174755617976,0.00764986174181104
0.0014281653566286,0.00153121876064688,0.00658459821715951
0.0174071304500103,0.000465954886749387,-0.00726383971050382
-0.00709394970908761,0.00685754045844078,0.0108456546440721
-0.00496342079713941,-0.00699089607223868,0.00338880415074527
0.014211337082088,-0.00699089607223868,-0.00939436815679073
-0.00389815680682659,0.00366174755617976,0.00551933376118541
-0.00283289211802185,-0.0165782757103443,-0.00406804634258151
-0.00709394970908761,0.0100533328950405,-0.00193751766346395
0.00355869415216148,-0.00272983848117292,-0.012590161524713
0.000362901017069817,0.0185754485428333,0.00338880415074527
0.0131460726261139,-0.00699089607223868,-0.00406804634258151
-0.0156160648912191,0.00366174755617976,0.0161719787865877
0.0237987171858549,0.00153121876064688,-0.000872253382112831
-0.00709394970908761,0.0111185973510146,0.0161719787865877
0.0110155455768108,-0.0187088046222925,-0.0253733359277248
0.0014281653566286,0.00685754045844078,0.00871512573212385
-0.0102897426113486,-0.0123172178864479,-0.0179164819419384
0.0163418650627136,-0.00379510293714702,-0.0115248970687389
-0.00922447815537453,-0.0080561600625515,0.00764986174181104
0.00675448775291443,0.00153121876064688,-0.0115248970687389
0.0110155455768108,-0.0144477467983961,-0.00619857525452971
0.00675448775291443,0.00472701247781515,-0.00832910370081663
-0.00602868525311351,-0.0187088046222925,-0.0136554259806871
0.00995028018951416,0.0153796579688787,0.00764986174181104
-0.00389815680682659,-0.0155130112543702,-0.0189817473292351
-0.00176762766204774,0.00366174755617976,0.0129761835560203
0.00355869415216148,0.00579227693378925,-0.00193751766346395
0.00888501573354006,0.00579227693378925,-0.0115248970687389
0.0014281653566286,-0.0208393335342407,0.0129761835560203
-0.00496342079713941,0.0121838618069887,0.0140414489433169
-0.0113550070673227,0.00898806843906641,-0.0115248970687389
0.0216681901365519,0.0121838618069887,0.00125827570445836
-0.0156160648912191,0.00472701247781515,0.0119109191000462
-0.00922447815537453,-0.00592563161626458,-0.00726383971050382
-0.00709394970908761,-0.00486036716029048,-0.0147206904366612
0.00675448775291443,0.00685754045844078,0.0246940907090902
-0.0113550070673227,-0.0123172178864479,-0.0115248970687389
0.00995028018951416,0.0185754485428333,0.0289551485329866
0.0152766015380621,0.00472701247781515,-0.00619857525452971
-0.0113550070673227,-0.0123172178864479,-0.00406804634258151
-0.00602868525311351,0.0121838618069887,0.00338880415074527
0.00462395837530494,-0.00166457425802946,0.0172372423112392
0.00995028018951416,0.0025964833330363,-0.0168512184172869
-0.0177465938031673,-0.00272983848117292,0.00978039018809795
0.0259292460978031,-0.0208393335342407,0.00658459821715951
-0.00283289211802185,0.000465954886749387,0.0289551485329866
0.00249342992901802,-0.0080561600625515,-0.00832910370081663
-0.008159214630723,0.00366174755617976,0.0140414489433169
0.014211337082088,0.00366174755617976,-0.00300278211943805
-0.008159214630723,-0.0155130112543702,-0.00406804634258151
0.00568922283127904,0.00153121876064688,-0.0157859530299902
-0.00602868525311351,-0.00272983848117292,0.00232353969477117
-0.0198771227151155,-0.00379510293714702,0.00871512573212385
0.00781975127756596,-0.00166457425802946,0.00978039018809795
-0.0102897426113486,0.00153121876064688,-0.0115248970687389
-0.00602868525311351,0.000465954886749387,0.0289551485329866
0.00462395837530494,-0.00379510293714702,-0.012590161524713
0.00781975127756596,-0.0091214245185256,-0.0157859530299902
0.00249342992901802,-0.000599309802055359,0.00978039018809795
-0.0209423843771219,0.0228365063667297,0.00125827570445836
0.00675448775291443,-0.0155130112543702,-0.0200470108538866
-0.0113550070673227,-0.00166457425802946,0.0214982964098454
-0.00176762766204774,-0.00272983848117292,0.00978039018809795
-0.00283289211802185,0.0132491290569305,-0.00193751766346395
0.00249342992901802,-0.0080561600625515,-0.00300278211943805
0.0120808100327849,-0.0091214245185256,-0.00726383971050382
-0.0166813302785158,0.0100533328950405,-0.00619857525452971
0.00355869415216148,-0.000599309802055359,-0.0147206904366612
0.00995028018951416,-0.000599309802055359,0.015106713399291
-0.00496342079713941,-0.0080561600625515,0.0183025039732456
0.00568922283127904,-0.0144477467983961,-0.00513331079855561
-0.00496342079713941,-0.00486036716029048,-0.00300278211943805
0.0163418650627136,0.00472701247781515,-0.00513331079855561
-0.000702363380696625,-0.00486036716029048,-0.0200470108538866
0.00249342992901802,0.00685754045844078,0.0119109191000462
0.00355869415216148,0.00579227693378925,-0.00513331079855561
-0.00176762766204774,-0.00272983848117292,-0.00513331079855561
0.00781975127756596,-0.00486036716029048,0.00445406837388873
-0.00602868525311351,0.00472701247781515,-0.00726383971050382
0.00462395837530494,-0.0144477467983961,0.0119109191000462
-0.008159214630723,0.0175101850181818,-0.0147206904366612
-0.000702363380696625,0.00792280491441488,0.00338880415074527
0.000362901017069817,0.000465954886749387,0.00764986174181104
0.00355869415216148,-0.00166457425802946,-0.0136554259806871
0.000362901017069817,0.00366174755617976,0.00871512573212385
0.00568922283127904,-0.0080561600625515,-0.00300278211943805
-0.0113550070673227,0.0164449214935303,0.0204330328851938
0.0120808100327849,-0.0123172178864479,-0.0360259786248207
-0.00283289211802185,-0.0101866889744997,-0.0168512184172869
0.000362901017069817,0.01964071393013,0.00978039018809795
0.00995028018951416,0.00685754045844078,-0.000872253382112831
0.00249342992901802,0.000465954886749387,0.0108456546440721
0.000362901017069817,-0.0101866889744997,-0.00726383971050382
0.000362901017069817,-0.000599309802055359,0.0108456546440721
-0.0102897426113486,0.00685754045844078,0.00232353969477117
0.00675448775291443,0.0025964833330363,0.0204330328851938
-0.00602868525311351,-0.013382482342422,-0.00406804634258151
0.0014281653566286,0.00579227693378925,0.0161719787865877
-0.00176762766204774,-0.00592563161626458,0.0161719787865877
-0.00922447815537453,-0.000599309802055359,-0.00406804634258151
-0.00283289211802185,-0.00699089607223868,0.022563561797142
-0.00176762766204774,-0.013382482342422,-0.00193751766346395
0.0014281653566286,0.0121838618069887,0.00445406837388873
0.00568922283127904,-0.0155130112543702,-0.0221775434911251
0.00675448775291443,0.00366174755617976,0.00445406837388873
0.00355869415216148,0.00366174755617976,0.0129761835560203
0.00462395837530494,0.00472701247781515,-0.0189817473292351
-0.00602868525311351,0.0100533328950405,0.015106713399291
-0.00176762766204774,-0.00166457425802946,-0.00193751766346395
-0.018811859190464,-0.00592563161626458,0.00338880415074527
-0.00389815680682659,0.0143143935129046,0.00764986174181104
0.00675448775291443,0.00685754045844078,0.0119109191000462
-0.00176762766204774,-0.0091214245185256,-0.0147206904366612
-0.00922447815537453,0.0249670352786779,0.0214982964098454
0.014211337082088,-0.0187088046222925,-0.0147206904366612
-0.0166813302785158,0.0175101850181818,0.0119109191000462
-0.00176762766204774,-0.00486036716029048,0.00978039018809795
-0.0102897426113486,0.0153796579688787,-0.0179164819419384
-0.00709394970908761,-0.0165782757103443,0.00232353969477117
-0.00602868525311351,0.0143143935129046,-0.0157859530299902
-0.00922447815537453,0.0100533328950405,0.00658459821715951
0.0152766015380621,-0.00486036716029048,0.00551933376118541
-0.00602868525311351,-0.00166457425802946,0.0172372423112392
-0.00176762766204774,0.00579227693378925,0.00338880415074527
-0.000702363380696625,0.01964071393013,-0.0168512184172869
0.00888501573354006,-0.0176435392349958,-0.012590161524713
-0.0124202715232968,-0.00166457425802946,0.00232353969477117
0.0163418650627136,-0.00592563161626458,-0.00300278211943805
0.00888501573354006,0.00792280491441488,-0.0115248970687389
-0.000702363380696625,0.00366174755617976,0.0108456546440721
-0.00389815680682659,0.00153121876064688,0.00125827570445836
0.0014281653566286,-0.00592563161626458,-0.00939436815679073
-0.0102897426113486,-0.0091214245185256,0.0214982964098454
-0.000702363380696625,0.0121838618069887,-0.0275038629770279
-0.00496342079713941,-0.0101866889744997,0.00338880415074527
-0.0113550070673227,0.00579227693378925,0.00551933376118541
0.0195376612246037,0.0100533328950405,-0.00513331079855561
-0.0124202715232968,-0.0176435392349958,-0.00619857525452971
0.00249342992901802,-0.00699089607223868,0.0108456546440721
-0.00176762766204774,0.000465954886749387,-0.00939436815679073
-0.0166813302785158,0.00579227693378925,0.00871512573212385
0.00781975127756596,-0.0176435392349958,-0.0168512184172869
0.00462395837530494,-0.00166457425802946,-0.012590161524713
0.00995028018951416,0.0143143935129046,0.00978039018809795
-0.00389815680682659,0.00472701247781515,-0.0136554259806871
0.00249342992901802,-0.0144477467983961,0.0257593542337418
-0.00176762766204774,0.00685754045844078,-0.00193751766346395
-0.00709394970908761,0.00898806843906641,0.0108456546440721
-0.00176762766204774,-0.0155130112543702,-0.00939436815679073
0.0014281653566286,0.00153121876064688,-0.00193751766346395
0.00249342992901802,-0.0101866889744997,0.00551933376118541
0.00355869415216148,0.0121838618069887,0.00338880415074527
-0.0220076497644186,-0.00166457425802946,-0.0104596326127648
0.00781975127756596,0.00792280491441488,-0.00726383971050382
0.00355869415216148,0.0153796579688787,0.00658459821715951
-0.00389815680682659,-0.00699089607223868,0.0214982964098454
-0.00389815680682659,0.00792280491441488,0.0172372423112392
-0.00176762766204774,-0.0080561600625515,-0.0221775434911251
-0.00602868525311351,0.00792280491441488,0.00764986174181104
-0.00922447815537453,-0.0091214245185256,0.00658459821715951
0.00995028018951416,-0.00272983848117292,0.00871512573212385
-0.00922447815537453,-0.0144477467983961,-0.00193751766346395
-0.00496342079713941,0.0143143935129046,0.0129761835560203
-0.00922447815537453,-0.00272983848117292,-0.00193751766346395
0.0216681901365519,0.00472701247781515,-0.0147206904366612
-0.0113550070673227,-0.0080561600625515,0.0119109191000462
-0.00176762766204774,0.00366174755617976,-0.00832910370081663
-0.00709394970908761,0.0111185973510146,0.00978039018809795
-0.00922447815537453,-0.019774068146944,-0.00300278211943805
0.0120808100327849,0.0111185973510146,-0.0147206904366612
-0.008159214630723,-0.0123172178864479,0.00125827570445836
0.00355869415216148,0.00579227693378925,-0.00726383971050382
-0.00922447815537453,0.0100533328950405,0.0129761835560203
0.00995028018951416,-0.00379510293714702,-0.0157859530299902
0.0110155455768108,0.000465954886749387,0.00338880415074527
0.00888501573354006,-0.000599309802055359,0.022563561797142
-0.0315950289368629,0.01964071393013,0.00125827570445836
0.00568922283127904,0.00366174755617976,-0.00513331079855561
-0.014550800435245,-0.0080561600625515,-0.0136554259806871
0.0110155455768108,-0.00486036716029048,-0.012590161524713
0.00249342992901802,0.0153796579688787,-0.00406804634258151
0.00249342992901802,0.000465954886749387,0.00445406837388873
-0.00389815680682659,0.0121838618069887,-0.00406804634258151
0.000362901017069817,-0.0101866889744997,-0.00300278211943805
0.00995028018951416,0.00153121876064688,0.00338880415074527
-0.00496342079713941,-0.00486036716029048,0.0119109191000462
0.00249342992901802,0.01964071393013,0.00871512573212385
-0.00602868525311351,0.00579227693378925,0.0119109191000462
0.000362901017069817,-0.00379510293714702,0.0129761835560203
0.00355869415216148,-0.0112519534304738,0.00658459821715951
0.0120808100327849,0.00472701247781515,-0.00939436815679073
-0.0241381786763668,0.0025964833330363,0.00125827570445836
0.00675448775291443,0.0025964833330363,0.00764986174181104
0.000362901017069817,-0.00592563161626458,0.00551933376118541
0.014211337082088,-0.00166457425802946,0.00445406837388873
0.0014281653566286,-0.00166457425802946,0.00658459821715951
-0.000702363380696625,-0.0165782757103443,0.00764986174181104
0.000362901017069817,-0.00592563161626458,-0.0115248970687389
-0.00496342079713941,-0.0112519534304738,0.0172372423112392
-0.00176762766204774,0.0143143935129046,-0.0147206904366612
0.0120808100327849,-0.0208393335342407,0.00338880415074527
-0.00283289211802185,0.01964071393013,-0.0157859530299902
-0.00389815680682659,0.00472701247781515,0.0183025039732456
-0.00176762766204774,-0.0091214245185256,-0.0179164819419384
0.00462395837530494,0.0164449214935303,0.0108456546440721
-0.00709394970908761,0.0025964833330363,0.00764986174181104
-0.00602868525311351,0.0100533328950405,0.00338880415074527
0.0110155455768108,-0.00272983848117292,-0.00619857525452971
-0.0102897426113486,0.00685754045844078,-0.00193751766346395
0.00995028018951416,-0.00592563161626458,-0.0296343918889761
0.0110155455768108,0.000465954886749387,0.015106713399291
-0.00283289211802185,-0.0229698624461889,-0.012590161524713
-0.00176762766204774,0.00898806843906641,-0.00832910370081663
-0.0102897426113486,-0.0091214245185256,0.000193011044757441
0.0152766015380621,-0.0144477467983961,-0.00939436815679073
-0.0102897426113486,-0.00272983848117292,0.0172372423112392
0.00249342992901802,0.0100533328950405,-0.0168512184172869
0.00675448775291443,-0.00592563161626458,-0.012590161524713
-0.00389815680682659,-0.00379510293714702,0.00764986174181104
0.00355869415216148,0.01964071393013,0.00551933376118541
-0.008159214630723,-0.0112519534304738,-0.00300278211943805
0.00995028018951416,-0.000599309802055359,-0.00619857525452971
-0.0102897426113486,-0.0080561600625515,0.0172372423112392
-0.00709394970908761,0.0121838618069887,0.0161719787865877
0.0110155455768108,-0.0080561600625515,-0.0211122762411833
-0.000702363380696625,0.01964071393013,0.0183025039732456
0.0014281653566286,-0.000599309802055359,-0.00832910370081663
-0.0113550070673227,-0.00486036716029048,0.0129761835560203
-0.00283289211802185,0.00472701247781515,0.0257593542337418
-0.00176762766204774,-0.0091214245185256,-0.0306996554136276
-0.008159214630723,-0.0101866889744997,0.0129761835560203
-0.000702363380696625,0.0164449214935303,-0.00300278211943805
-0.014550800435245,0.000465954886749387,-0.00726383971050382
0.000362901017069817,-0.0123172178864479,-0.00406804634258151
0.00249342992901802,-0.00272983848117292,-0.00619857525452971
0.00355869415216148,0.0175101850181818,0.00658459821715951
-0.00389815680682659,-0.0251003913581371,0.00551933376118541
-0.00602868525311351,0.0132491290569305,0.0183025039732456
-0.00602868525311351,0.0121838618069887,-0.000872253382112831
-0.00283289211802185,-0.0219045970588922,-0.00726383971050382
0.00355869415216148,0.0260323006659746,-0.00406804634258151
0.00355869415216148,-0.0240351259708405,-0.00300278211943805
-0.008159214630723,0.0185754485428333,-0.00726383971050382
0.00355869415216148,0.000465954886749387,0.00871512573212385
-0.00389815680682659,-0.0091214245185256,0.00978039018809795
0.0174071304500103,-0.00379510293714702,-0.0189817473292351
-0.00496342079713941,0.000465954886749387,0.0193677674978971
0.00249342992901802,0.000465954886749387,-0.00619857525452971
-0.014550800435245,-0.00272983848117292,0.00232353969477117
0.00249342992901802,0.00153121876064688,0.0119109191000462
-0.00602868525311351,0.0132491290569305,-0.0243080724030733
-0.00389815680682659,-0.0187088046222925,0.00871512573212385
0.00355869415216148,0.0100533328950405,0.000193011044757441
0.00568922283127904,-0.00166457425802946,-0.00619857525452971
-0.0230729132890701,0.0100533328950405,0.0119109191000462
0.0248639807105064,-0.00592563161626458,-0.0168512184172869
0.0014281653566286,-0.00379510293714702,-0.00619857525452971
0.00781975127756596,0.00685754045844078,0.00551933376118541
-0.008159214630723,-0.00166457425802946,-0.0115248970687389
0.00781975127756596,0.000465954886749387,0.00978039018809795
0.000362901017069817,0.00153121876064688,-0.00832910370081663
-0.0113550070673227,-0.000599309802055359,-0.012590161524713
-0.00283289211802185,-0.00592563161626458,-0.00832910370081663
0.014211337082088,0.00366174755617976,0.00232353969477117
-0.00922447815537453,0.00153121876064688,-0.0115248970687389
-0.0273339711129665,-0.000599309802055359,0.0108456546440721
0.0131460726261139,0.00685754045844078,-0.00832910370081663
0.0014281653566286,-0.0091214245185256,0.00232353969477117
-0.00496342079713941,0.0111185973510146,-0.0179164819419384
-0.014550800435245,0.00792280491441488,-0.00939436815679073
0.00995028018951416,0.0025964833330363,0.0161719787865877
0.0152766015380621,0.00792280491441488,0.0119109191000462
-0.008159214630723,-0.0123172178864479,-0.0189817473292351
0.00675448775291443,-0.0123172178864479,0.0172372423112392
0.0014281653566286,0.00153121876064688,-0.00939436815679073
-0.000702363380696625,0.00898806843906641,-0.0211122762411833
-0.00176762766204774,-0.0101866889744997,0.015106713399291
-0.0102897426113486,0.0121838618069887,-0.00193751766346395
0.00781975127756596,-0.0101866889744997,0.00338880415074527
0.00355869415216148,-0.0165782757103443,-0.00726383971050382
-0.00602868525311351,0.0185754485428333,-0.00513331079855561
-0.00389815680682659,-0.000599309802055359,-0.00832910370081663
-0.00283289211802185,0.000465954886749387,0.00658459821715951
-0.008159214630723,-0.00166457425802946,-0.0104596326127648
0.0195376612246037,-0.00486036716029048,0.00658459821715951
-0.00496342079713941,0.000465954886749387,0.00871512573212385
-0.00709394970908761,-0.013382482342422,-0.000872253382112831
-0.00602868525311351,0.00898806843906641,0.00658459821715951
0.00249342992901802,-0.00166457425802946,-0.00406804634258151
-0.00709394970908761,-0.00699089607223868,-0.0115248970687389
0.00462395837530494,0.0207059774547815,-0.000872253382112831
0.00995028018951416,-0.0229698624461889,0.00445406837388873
0.00675448775291443,-0.00166457425802946,-0.0136554259806871
0.00675448775291443,0.0175101850181818,-0.00193751766346395
-0.0156160648912191,-0.0080561600625515,-0.0147206904366612
0.000362901017069817,0.00792280491441488,0.0119109191000462
-0.00709394970908761,-0.00272983848117292,0.00445406837388873
-0.0102897426113486,-0.00272983848117292,0.00232353969477117
0.014211337082088,0.0025964833330363,0.000193011044757441
-0.008159214630723,0.00153121876064688,-0.000872253382112831
0.000362901017069817,-0.00166457425802946,-0.00832910370081663
-0.008159214630723,0.000465954886749387,0.000193011044757441
-0.00602868525311351,0.0164449214935303,0.0214982964098454
0.000362901017069817,-0.0240351259708405,-0.00300278211943805
-0.00709394970908761,0.00792280491441488,0.00125827570445836
-0.000702363380696625,-0.0080561600625515,-0.0168512184172869
0.00249342992901802,-0.000599309802055359,0.0172372423112392
0.0110155455768108,-0.0208393335342407,0.000193011044757441
-0.0102897426113486,0.00472701247781515,0.0172372423112392
0.0014281653566286,-0.00379510293714702,-0.0253733359277248
-0.00176762766204774,0.0153796579688787,-0.00193751766346395
0.00462395837530494,-0.00379510293714702,0.00658459821715951
-0.0113550070673227,-0.00379510293714702,0.00871512573212385
0.0014281653566286,0.00792280491441488,-0.0157859530299902
0.000362901017069817,-0.00166457425802946,0.0236288253217936
0.00888501573354006,-0.00486036716029048,-0.00193751766346395
-0.00602868525311351,-0.00166457425802946,-0.00619857525452971
-0.0166813302785158,0.00792280491441488,-0.00513331079855561
0.00781975127756596,-0.00486036716029048,0.00978039018809795
0.00568922283127904,-0.0080561600625515,0.00978039018809795
-0.0102897426113486,0.00579227693378925,0.000193011044757441
0.00675448775291443,-0.0165782757103443,-0.0189817473292351
0.00888501573354006,0.0143143935129046,0.0236288253217936
-0.00176762766204774,0.0025964833330363,0.000193011044757441
-0.000702363380696625,0.0121838618069887,-0.000872253382112831
-0.00176762766204774,0.0025964833330363,-0.00832910370081663
0.00355869415216148,0.00792280491441488,0.00658459821715951
-0.0220076497644186,0.000465954886749387,0.0119109191000462
0.00462395837530494,-0.0144477467983961,0.00125827570445836
-0.00922447815537453,0.0100533328950405,0.0129761835560203
-0.00602868525311351,-0.000599309802055359,-0.00619857525452971
0.0227334555238485,0.00366174755617976,0.00658459821715951
0.00355869415216148,-0.0123172178864479,-0.0168512184172869
-0.00602868525311351,0.000465954886749387,0.00445406837388873
0.0110155455768108,-0.0123172178864479,-0.0136554259806871
-0.000702363380696625,0.0111185973510146,0.000193011044757441
0.00888501573354006,-0.000599309802055359,0.0289551485329866
0.000362901017069817,0.000465954886749387,-0.00406804634258151
-0.000702363380696625,0.0164449214935303,-0.0115248970687389
-0.00389815680682659,-0.00166457425802946,-0.000872253382112831
